flex_sensor_1,flex_sensor_2,flex_sensor_3,accel_x,accel_y,accel_z,gyro_x,gyro_y,gyro_z,label
777,123,450,-7.377575809670002,9.182618658558287,6.770698153074733,142.7826891859413,165.78180354397705,467.8876499344185,no
108,804,833,-0.8927173087699902,-8.562494925827512,1.6746450032024978,203.38068558013777,200.15969207313503,181.40706003843763,bye
705,161,517,6.209392341391858,1.5889683849737946,-1.9392902213062957,-200.8838683880423,173.76383462977446,-184.79015283889998,ok
34,200,20,6.561190854657525,8.04388580244757,8.9300484280642,258.4247257075418,-113.09164231565092,233.85987020556536,no
466,453,72,-1.7687245619793934,-9.761910623042994,-5.0695740832126335,-294.3950809608666,182.8276445685459,-169.73261167708398,bye
901,401,841,0.3761662416870699,-0.029710780218859867,6.0618915176127075,44.25137727557387,397.4069691923586,-374.2850922153238,bye
274,461,35,-9.326993357298868,-2.9998607137864024,2.2409924289630645,304.2810935621733,-167.42650812337632,-24.63964254435092,thank_you
186,274,506,3.488651129371938,1.606643805158182,-2.4620996622957243,37.00908568255534,444.8890262149537,251.02385913841408,bye
948,205,898,-1.907882341062738,-5.490852265246826,-9.972640312729265,407.96271852105065,-486.4184121012303,-122.34008911267881,bye
1011,39,232,-1.0904463383330842,-8.702015655365505,-1.0680139730274636,-441.49876712536417,-150.9174617347628,369.1741420473429,thank_you
242,272,727,7.473454543595295,2.518660736974139,-4.465600049154014,88.31384549147185,-367.9015982712598,-113.04729591224014,no
263,699,981,-0.7633113087878325,-1.6630152101319506,-7.913067733488788,61.755452544390096,-373.38017095497634,-150.16097449326827,no
973,866,496,-9.576155075442944,2.4497107741245934,-8.496828693238303,160.35332854268472,315.4294940115683,498.2439138632666,thank_you
521,92,205,-5.450182182618752,-5.789217063243141,-3.0488334537679602,333.4068386803076,418.368314750123,-17.527977009934602,ok
962,41,425,-0.48758771383482014,-3.2251747409303633,2.295147774812971,225.85308433839498,277.75825423298556,305.221209713506,thank_you
677,464,940,-1.5120741450292847,1.2336277872922068,6.7503863072954715,290.2827353728418,476.6157189925598,304.98805605992254,no
540,378,43,7.207402745609613,1.8622555664945466,-6.3287351010534625,-211.18327428237848,-283.6710298337293,426.36933709917935,ok
782,106,90,0.8427501861233324,-2.553703844514697,-1.507120573819007,-112.50262143103538,-359.20008779030957,-415.10494554969637,thank_you
86,327,928,3.7927148383024196,-4.398935887668872,-2.1608771971569567,126.7769740462303,20.703782039613543,-228.7797235731577,no
534,64,827,-0.6135340591305987,-4.525987410228083,0.2678801841703127,53.46147192493527,329.03761474261796,267.748091546434,no
209,364,469,-1.2068853188167026,-6.506012971582031,6.191745416191058,461.1038749705365,-460.1609091619403,62.601492398564915,no
45,820,604,-1.0742666305129749,-3.491900753408257,1.0729043599846975,-313.16550006558066,495.56566099988197,59.61494235453392,bye
466,483,466,-1.7815686061232228,-6.011193259735601,6.933098270045882,-148.7216275488583,102.2459292053228,-333.7846981297592,bye
539,646,850,0.7716677170840676,2.676308124598897,0.3710351213795544,72.75523328485474,478.9418121813775,-218.84698588607023,ok
25,1005,453,-4.991131964927926,1.3813399648417928,2.0769473036254293,367.96376993615195,-134.91836676622302,21.33408571673442,ok
265,900,1004,7.821103876836418,-2.3482235265815987,-1.2523351501402047,429.34852469099167,-41.97617946641077,-222.8186353253788,ok
174,23,594,-3.338289038122541,-3.4833996012521107,6.461911605912675,-163.96366917240147,252.36144239739212,-289.71720730128493,bye
515,539,332,-7.0495233164530635,-5.24771599610715,8.476544127293053,-432.8915384736484,292.7004505613187,-412.2439442300039,ok
310,61,506,-8.068990428045097,0.7091661791868233,2.782894762462913,-78.38030207781486,-266.96694664975973,-344.2739880766544,no
321,490,793,-9.731541697597448,8.378055286913767,6.415648983458077,-105.65585676649289,429.8010863077227,268.86776249197294,no
578,272,469,-1.542878428662771,3.714061027778744,-8.819933320017995,486.4870679296895,367.4231218347286,218.7791805847155,ok
134,228,20,-6.247780229091506,4.888294280711348,8.12223502893315,-68.93875570921062,-481.79469689680144,-454.1663156512884,ok
54,19,227,-9.567041948255042,6.6875572731281565,-6.221498663217508,-194.27700069677059,-371.4318941448169,-296.715914655889,bye
975,2,375,0.4003909257904752,-2.9673005332430247,-4.869591453483841,-134.622625465066,-3.902893592932628,60.45534673271629,no
542,420,129,3.599570973015229,-8.742484357710246,-8.933398635865075,-103.07371937618615,-39.04448588681731,-177.37215576322683,thank_you
585,729,686,-8.284978981777913,2.451176066432886,9.308002339481181,321.54038219661595,208.39085503483534,323.24960267953054,thank_you
530,910,619,-0.7815845416068079,-6.226554175439347,7.040216989767526,-418.9851071687358,-410.28862394696597,284.98930766214687,bye
155,306,413,4.872573572014932,1.3808729999133256,8.263692081821677,-183.49295112497333,144.8553066971266,391.5805579581096,bye
848,431,794,9.716136420168503,4.790204663141296,6.9443233552003,466.31849190709966,116.36993113458243,62.931231505115875,bye
667,135,70,3.3438068928512177,5.672766042956731,-0.40938894557422323,-346.89749520120006,-266.3804015219556,-147.9235201909015,no
146,908,403,-5.103208983809589,-3.9632175950496906,8.48163868181527,242.60132153258996,42.393964268399486,106.0646961849178,ok
484,943,561,4.331072795579992,0.2486646513863029,9.389456408543765,-143.60649880170962,-277.79279300401805,-410.8633202545422,ok
598,514,606,1.958588536396599,2.419301925543847,0.05133953578795136,81.78552619452535,-353.0769728993937,-490.41398225853237,bye
19,192,790,-5.764014228369046,6.389614434012437,-6.487504373423237,-400.4519614911179,73.13493465407055,-482.9064798796446,no
268,584,396,7.022216516951094,5.227773302098948,3.1724501792618867,-193.58833264605346,477.4742783005703,-92.45706206578387,thank_you
332,414,336,-1.4519114554479824,9.759506419547407,9.508765797071412,0.8649416608882348,-263.066650828255,-271.92240589693677,bye
554,872,643,9.239553094682517,-9.838306469399782,7.4429371971775,-268.2993418241416,-144.66385064484808,-342.66229419995227,no
906,117,504,4.458020148955558,-1.25021118273734,7.236303522918149,41.869943053152156,-243.42677400995325,115.32601561817046,bye
943,665,909,2.891263092636443,-4.879110272477442,8.676360336145642,-280.2406859372837,-233.54017835350527,495.09504261318114,no
910,208,275,4.567056749531238,-7.602132257102532,7.87904521105094,150.10055265055394,-95.80786581331932,-322.24679638446366,no
400,951,891,-0.43805962363556894,8.230306563343692,5.525633280365858,404.3543402503143,201.8555106506201,46.42142421393885,bye
949,33,12,0.10452955603348002,9.959241321913726,4.365456643236545,-414.5113626484286,-461.1954759690549,-380.2724860001062,ok
305,648,2,7.02414770889488,-6.388075841905527,-4.704656525104913,-283.38396422391367,457.12419568556015,434.236441072139,bye
27,317,985,3.6185707328700563,-9.231332143972729,2.426800428568985,344.42302726032995,-453.7201205107525,-208.24483142941494,ok
466,119,985,7.944866503832834,-4.498911046389993,0.4297724341177904,131.5534854419576,381.25318194455974,378.3398200433784,ok
259,626,977,7.816535071485372,6.697238361327912,7.238881831619825,-421.2910828574348,394.3780987619989,-216.92356074962316,thank_you
533,524,223,9.529800680884982,-4.122198336013665,-0.1657485301985595,-13.649884890504666,24.48918759152332,306.05248018671944,no
981,580,973,4.004293176906684,-8.861970390047569,-7.445144729146218,-290.241484988665,-363.00317138103253,-290.6186665542273,bye
886,936,174,0.04603435323484106,-8.950156320939403,-9.900550293553017,-300.9036059299302,65.14597055694378,-207.2105698465556,no
100,844,898,-6.673765995818353,-1.4515439526112708,3.5574624093733043,440.6453433605237,128.6321599028497,-307.524634596366,thank_you
550,768,384,4.107611192948346,8.636514461232395,0.9981677425432309,261.54154807610894,357.7589578071113,-235.74012215034435,ok
801,88,601,-4.168445664801386,-4.281591167207361,-3.3807419128310334,196.23059352414373,50.89537576956968,334.8657553333153,bye
352,511,919,-4.341048639253375,-1.4568463859791247,-6.6205569992421935,-261.07118292214136,-89.29060409666181,139.0324975466974,no
299,46,240,-5.234244471038638,-7.96132389234783,-0.665693551921958,-381.4265669590495,338.2911938541139,-94.12033116277598,thank_you
681,771,546,7.502441147029003,-0.12854413462037861,-7.994270550421887,370.8326212853501,480.951797352619,471.52102708215625,ok
295,739,13,7.359288933643164,3.9309412857140806,-3.277830215577138,-494.1204306575491,145.1032051579333,-35.138472870426256,ok
352,958,194,2.619408897401163,-4.576992776455608,-2.4157618752873127,-111.9035762989804,374.3870373028095,469.75997125885135,no
907,691,396,-0.5403803725852825,-4.065773829426305,-0.6876261032407562,-222.38749703866642,98.73511282906418,-303.4130770891398,ok
129,521,430,3.4422892019759814,6.839500508125425,-0.6675849732230628,70.37620034882366,189.78799141030572,404.6384271149493,thank_you
1018,283,305,2.1445890059678145,-9.792725553056458,-4.859887130514455,-249.4915641141653,188.16711754891878,-486.1777959025053,ok
155,376,333,-1.6853150335322535,2.72941417100194,7.004219632039753,-188.79464067169204,204.78698684026529,45.30320236575744,bye
73,637,724,-2.407382650287313,-2.1223073011676608,-2.8891298748650884,350.03985499319356,-178.98655607136635,-76.94760570798519,bye
341,133,409,-2.344113837092996,-4.03238972877062,-5.408253822149673,103.18882340451876,75.6613962717123,25.087845471979335,no
464,666,2,1.7826680631207648,3.151876644877543,-6.483802331788196,-354.3174726706316,94.1355839737954,53.44483194769896,thank_you
89,247,690,2.953387122416517,6.693370435794105,-3.5484321099332883,226.4715434958315,-184.92837328676802,-110.96864593228906,ok
578,651,551,-0.9651649296911593,1.1678423265734743,-8.648942340449313,-292.5407985201216,-150.14763229633633,498.19784688609514,ok
454,317,451,9.373829004260863,-9.37810756113888,-9.341849540380567,-66.99506988751989,262.2467650167148,476.5071903006258,ok
747,435,675,-8.32308563991038,-0.7719761834884782,2.1028439360573543,146.60723683929336,82.72384061724915,461.7453767045952,bye
711,175,818,-3.05905948092446,-0.744801182120538,2.3829427209838006,-228.07046254251276,-350.7888520368314,479.0850473765879,thank_you
979,834,746,-1.6185063374911817,0.8759698960921565,0.591764052765793,-115.89318532420776,337.63698868287224,293.0123987693986,ok
331,685,768,-9.661573130701138,3.419178020871046,5.245703904634487,234.1495973041508,383.1142870743197,488.5904790263319,no
738,992,871,-2.700856246635497,-9.613631929313192,-9.21698911445844,437.91095342434335,-33.858852042185845,392.36022527514194,thank_you
976,585,494,-4.525801656543149,0.04025248799500858,8.719462164189352,29.245056959473004,-291.09256797707303,-84.0673629675789,thank_you
347,350,416,0.12072540454961533,1.7661553876118141,-8.09869753485879,-490.02902844337723,447.6064954049052,284.7771083834077,ok
232,142,390,-3.2717890563346153,-3.1329322716789605,3.4804598878718718,-161.5362487581695,382.2695645195763,412.0678451256258,bye
777,966,372,4.523642698929224,3.367304531808662,-7.332068221183814,-101.36566515446555,-255.61825365816148,212.6060735870925,thank_you
597,803,627,0.19864990815296935,-5.436445657416577,7.598108666155849,-160.82637999775596,-404.4062636973026,-77.21765943439607,no
1023,397,51,-7.404755330074712,-3.652553338650968,0.21426573890062528,-63.73113888443726,-59.346392450893234,-434.2097579835747,thank_you
101,1015,375,5.0012264828869455,9.255106948486521,-8.354129179640479,132.6662538183997,176.39698649373963,309.69693706058763,bye
952,623,394,-8.015422078346468,-3.0385925827771976,2.334482254001472,-378.8719730022468,-324.61141478005595,452.7428731264703,no
480,717,922,6.780983361587147,-3.069982252685099,-9.817801122355966,-227.3694911324945,13.212658431747968,-137.5367397700736,bye
213,642,1020,8.628443881724387,1.9136127164623051,5.520443568804891,7.648086017624564,-74.5845057274833,-348.0939490110604,ok
107,368,141,-3.5510941963029214,9.419506597201202,3.0116997329224677,-184.42669182002493,390.5511487694656,-173.4961605294443,thank_you
164,500,85,8.522852665258618,9.661608919060008,-5.747505012729855,491.0853381353594,-70.4333671928714,82.62235817824626,no
972,621,463,5.860163182450766,1.5931592735263216,-2.504981676478126,-68.56853296251177,33.77639373503757,-183.07099671776382,bye
602,369,45,8.4487122200754,-9.97825960390135,-9.843866110222194,369.79915359221627,455.2861960018223,110.61873019635391,ok
703,578,843,3.3254027384169547,8.013131015367993,3.873676299424101,396.5098356138644,-200.30823412543543,466.8522322446306,no
334,381,1008,-5.287119211571563,1.4047592915409624,-3.546637249805615,336.00699972235,-211.00906805805863,170.73449330768256,thank_you
85,85,237,7.89046473821945,-2.680071834201283,1.4317783059343832,-453.1017590548322,299.59507994204273,-137.34063371437833,thank_you
733,786,9,-6.314698476585125,6.583902820318766,9.134552558289258,447.74673161335147,-222.46101385603134,435.7529714715349,bye
874,738,663,-5.738788979649289,-2.0033508129958992,-4.0106657410483,-371.25743786682307,331.865870073205,65.6352687011439,no
423,459,572,-4.578740197192726,-9.319109875994707,9.804757681746366,-465.5963722857055,-404.46439063835504,-371.62760146743335,ok
612,949,1005,-3.9150737702683074,6.421444461140375,2.654567720151329,-85.63039209344248,-388.7387526905316,-1.0189948062384815,ok
737,324,529,0.28959284262061225,0.9171880203952458,-5.158226674289901,-305.36596724214394,401.32337416277176,153.63644491004993,ok
363,521,597,4.269147208680881,-3.2371292355160763,-1.2644423395748454,-315.8034703367638,40.81228248243531,338.2543658167385,bye
59,488,648,8.524163488013674,-4.9821524729229765,4.809062447671796,-212.18038662384942,218.81426669423877,436.4767867076473,ok
481,928,912,-8.231248253289952,1.8759491883085122,-1.0704418463383742,-251.59439475314517,-274.71110813745565,-182.58386628361478,no
249,396,741,9.087387244564717,-5.839009035497997,-8.629848653168953,184.7954021501531,-333.72563161789174,-344.4876359209632,bye
559,895,639,8.426459341936269,-3.522982268859936,-6.627926772349153,-313.2226933639299,334.9542622326401,-426.1713578061176,thank_you
116,354,615,-8.92001415637922,2.7306061882796726,5.82595491567891,43.118305197258564,-141.37659297675123,238.35460270828275,bye
738,946,697,-2.793577246168746,7.63088900811864,2.9674615143612275,486.4265461435298,-44.96738087800554,295.1582527154319,bye
873,287,908,6.26286780598673,0.657806567831976,1.3965095466426742,-67.61757904371115,-472.02810272464103,-90.62687307183313,bye
914,458,177,2.231530909588022,5.18212796598185,-6.647560584891973,141.87310879543645,-114.11926580703357,-104.07459282637097,no
967,623,868,5.5818788676354085,5.261212075260836,6.755148907006788,469.3716777298737,270.43780812497846,454.2370316546319,thank_you
998,997,5,4.380666775797749,3.2870790531877354,9.214802191725003,-362.3610019586357,321.2751772861694,416.6813250803274,thank_you
544,535,852,-0.06459773745672948,-5.083233246389646,-9.18225805018661,-81.39299070695063,198.7547888825418,-266.7340980829568,bye
43,290,306,-9.17563908096601,7.335771963004838,-8.439362586922893,350.1924001952541,192.17973354374215,280.8076477498073,bye
508,850,547,1.6853640412900202,-1.2744868872086705,7.694490066291294,432.30568274487985,6.239266597157894,122.70039623294008,bye
987,837,326,-9.02866693881408,-9.115785121285988,6.311045080642565,101.23605795890512,38.329329259823,-345.77726088036013,no
164,167,355,2.074534350702617,-5.107746598609497,2.358689110225873,-356.5793974597766,242.63174681314342,-143.22895291343963,no
367,949,792,6.008217249873564,5.310967081986316,8.899304179722758,401.47158394765506,-252.69820117227715,-322.5270586925175,ok
856,620,394,1.6998349740383727,-8.617333283650213,2.928611559840064,-325.5534338090574,-268.482931753944,-204.8439611781614,thank_you
291,427,299,9.940436091233941,-7.052711956901776,-5.6802944854099335,-147.12215166788144,449.9248239140546,115.30117577335159,ok
848,701,525,-0.8826699963913391,3.884536320834089,4.572846474338004,-124.49202223773824,-472.3101132412246,-124.73452895656033,ok
855,489,748,4.976549272079749,7.852015794550809,2.914206894912745,-52.70846012737195,-360.5345363348184,-105.9404801641428,bye
916,354,284,3.344265834838149,2.674640101152736,9.714894040200587,290.16581593094963,70.33242620124804,39.647292617189805,no
897,195,329,9.82863383116176,-5.554178923408908,-5.722085272504165,302.14437810248467,237.83483869834856,-412.7758611582773,ok
798,544,49,4.264380101542102,-8.931724735009027,1.9576987272519801,219.65507327811417,37.891082985011735,238.79728984941482,ok
875,716,1007,-6.719385370812212,2.302531651006234,5.60335044450245,-477.8713255784184,-144.93600383511586,-98.29046658665999,ok
736,823,772,9.110354128344817,-9.05202844137672,-3.220338213236584,64.84510221715152,477.97611935296754,-19.602911797679837,bye
285,931,967,3.3555445289152264,2.2544410388351395,-2.406408338035247,247.4929558814,203.85268513284586,474.29972885463167,bye
203,693,621,-8.813235383872202,-5.488401116778099,7.758036766566413,-55.3747599384572,331.390841067079,-155.63311168174596,no
683,1002,708,3.151366115692248,8.093121248176594,-1.9161024078223736,444.93604536539647,-459.75312581179594,148.21893597392545,ok
523,658,377,7.662388133495501,-0.4981466302527622,2.4946570379122885,323.81052188035096,-264.0798895266163,-107.49568270418928,ok
818,938,763,1.540837239800501,-5.521231333806087,7.784762750536512,138.15506548683072,-125.82890640841993,394.2827186836781,no
120,779,599,-2.9196072393597756,7.062906331171831,-5.8034683381887735,-437.57481631748664,-317.398601917722,346.7562669950395,no
944,10,999,6.418192681412322,-4.919292031049833,9.637545927052116,152.34624758313817,-427.1007272908528,-258.3757282376157,no
755,581,824,5.650240164116589,-3.8680184695024895,4.039070679406516,411.57960125221894,-274.9083354053198,191.74571261090057,thank_you
663,255,537,0.8836430846260157,6.685557981109113,-0.07756611717110395,-120.55461311904855,33.63563123704262,-434.828004102793,no
663,395,773,-6.912764602081993,-3.824159403988081,-1.3815887129800473,338.132525605361,195.74524835670525,463.18538952989013,bye
1017,730,143,-4.980270289536373,-1.7967246153872534,9.08729231103009,-186.83885713782098,274.020922965081,-151.00989198584244,thank_you
187,808,59,4.769679443722115,-3.0466865848226687,-5.885503449406673,70.10329154730277,-457.06384513228295,331.842772584767,no
906,408,867,6.121643307898552,-7.671993643392483,-3.7663348630807736,148.4244183707824,-72.01382778740884,-181.56863392269008,bye
12,361,779,-4.414694439180204,-9.222083755063476,-3.8441448890415053,177.99503755889486,-377.7884164146327,132.770741196872,no
602,258,74,-2.640298456264267,4.490813481219627,-4.219873305310731,382.5493144643482,-68.79961355532816,483.59079198433176,no
199,2,2,-8.447362295004098,2.902742478714412,-0.6292390956862164,-265.3777329937179,-66.0241508797049,376.74986313163026,thank_you
585,83,574,4.269238967329995,-4.3526786489588565,9.783584665356663,-237.6304147110253,-1.7883132877562957,-339.6340900950926,bye
767,155,747,-9.928449107999374,-4.0880175003024295,7.775735334324349,204.04099331073678,392.8306262632394,47.488433149471234,ok
455,662,447,-9.069169575618638,8.900115660173626,-3.441008633570277,-322.80618751596194,305.0955026240895,-151.46821788530985,no
447,175,957,-9.913118644318201,9.753422544669842,-1.5425976853972472,-35.729595036039655,136.72084513639186,-65.66114835170822,thank_you
787,706,740,2.9063916667523344,-0.5313019353261303,3.389614927718627,-479.9656159227849,385.40732293353074,-164.81687078123144,bye
839,937,901,-1.6522574459890684,6.049034909629874,-9.656966386067719,-359.0206630098859,178.46861650462336,-164.04075180448683,no
840,471,274,-4.049064773133395,4.7337175173873085,6.403073173712958,178.8463850288614,318.85496076307516,42.55324377661145,ok
70,618,529,8.254020207142208,-4.053645809759061,7.595961146238391,247.46160348175397,63.778300984126645,-308.03599087684745,bye
589,423,591,-6.143944106467867,-8.828745789590434,7.14400668649068,-384.68096676212315,25.21825163090068,37.395425233364676,bye
795,133,214,-2.2126397923719887,-7.1488748573012,-2.498912262289277,-272.29044958880297,224.0972427723848,-221.0345628016991,thank_you
129,787,682,8.806236018555033,6.765882340015267,-0.7600098527158377,-401.0955534629489,-480.3106880242489,-211.01709575820036,no
888,906,484,-1.4578687432591515,4.624276399925622,-9.752233561924884,-66.58715607488318,190.3775716314234,238.74802903562272,no
42,863,328,1.0938737129411553,3.286696889245558,-2.0120930391289837,-373.88392925536675,434.5182184043647,-470.4063964400642,bye
519,379,254,-8.393262668610248,-7.387023366067034,-0.7914635526679703,-62.70398283310999,213.94207982675402,-119.05423732619289,no
12,666,386,5.803327737869246,2.798613749010494,8.139485861369572,232.0982558011316,-463.2062757027815,-92.46561984635491,bye
724,276,125,-1.5448244582352366,5.443046629862309,7.879753475144948,183.38863314341745,-122.11435922727611,-14.889860281827282,ok
622,235,766,6.010302491969668,7.212034997205812,9.321941281758189,-219.5395131481548,309.58130227128606,169.0110247295387,thank_you
987,751,583,-4.924047148880158,-9.735374416127636,7.702099701810408,173.7625492469325,458.60855004442,-130.31321726291344,no
802,881,549,-1.5504249887717982,3.6895020375695537,-9.835985811447088,427.7121308995769,-129.83664436362272,-286.86289569354494,no
534,12,323,5.730978727300206,-9.618046887935911,2.829217046644395,-152.47561291508447,341.1940558769081,384.8728405463087,thank_you
301,341,203,9.477555340872794,4.137456910868771,-8.635246337939185,-170.88084630239342,363.809875301513,481.0386266812119,ok
765,34,171,-8.807489512254623,2.712427294640097,-4.5481142724002925,71.43865148201746,-376.71360067395,-479.9853068270672,ok
526,558,734,6.249123548378087,-7.03304274162055,1.5661525894116064,-254.49818897252817,345.78846671868735,46.46685100069794,ok
641,213,216,-3.986218647457795,5.322435026902605,4.012276368150777,151.57892798025193,-175.75010436138496,-158.2976208908018,ok
572,411,244,1.0148656178214424,-8.633047636206177,3.0926405183419057,332.261770672481,93.23772156541736,-223.01042461279076,ok
114,404,335,-4.198154700985041,6.527975474892671,-9.018832651827136,-40.681494901367955,38.962119356421,-164.2936091300645,bye
459,493,702,2.2689094513598036,-4.76141510303542,-7.927922608608959,179.50732492838245,163.05386373612066,138.87775642620056,no
831,657,297,-2.923943387120489,3.7770372460133004,-7.428263741374533,151.88542388299527,240.46465094473024,-309.2839897702051,no
504,158,831,-3.3277021804463702,8.473786820437404,-8.171712464606177,-461.3344381524105,-59.1189023814199,412.8607116579502,no
307,955,181,-9.24123374128129,-3.203459506531021,-6.435311534613555,-316.58370482422356,388.3108221491324,-33.885475060524186,bye
931,636,333,-7.06079188192377,0.05788155880838275,3.7697558262311865,393.5300018181299,309.49842156156126,-174.42316685067163,thank_you
962,109,510,8.341563977309576,-0.7376393209909935,6.616745023183057,438.89214736501935,285.4210926478597,265.53133154759905,ok
324,548,382,9.965548577464926,-6.847773018742638,-1.8237221985317937,280.4396399111773,-41.75315806570825,-483.6533347638073,thank_you
578,788,716,5.610411517392128,1.8062402098152326,3.8556301285668724,421.2481483276946,-462.42711415538986,-68.14713426196317,ok
760,525,872,-4.263747504530264,4.860038370418959,-5.99967477468347,-193.8513490814252,-7.743593621055595,-144.69639899877006,ok
174,984,198,-1.9510972311281485,8.337496578476383,9.465603032668163,-252.289028220953,398.44553414418294,-161.79009001026554,thank_you
850,346,331,4.790069098121654,7.016052032990256,-3.000049542847634,-115.69981243948001,-309.54984439248113,-162.9286379094168,no
513,743,164,9.370271137663963,0.2003875945606346,6.917338124096702,-444.65800144954716,482.5924720105878,-468.7286222527326,bye
171,827,241,-0.8905765854126475,4.380343090238696,8.90732745258774,309.8716190413278,307.6906200131714,-347.88359699116023,thank_you
996,635,899,6.590448305767495,6.0156682674778565,7.2942792575060444,484.1754851150772,209.82979228206477,-358.11484068758557,no
959,278,641,9.50137845197434,-0.130225725233025,-8.658646969194221,324.0292924366098,177.1599579223207,488.610504819522,ok
501,478,226,7.469463421120086,-7.691448785914645,3.0061431461451207,54.975334852548144,87.02588193376255,-477.83424410938824,no
976,110,633,-5.457005064573462,-1.2413847230525832,-7.598185868568976,-204.71802951705018,220.67032324913203,-332.92634364800176,ok
333,635,555,-9.839362722487541,6.849560764031295,-9.886739989484067,-302.3021114564194,-78.09444378067951,474.1745086586968,ok
283,924,450,-0.15836589223169817,1.9328281078747,-8.96433112113865,-135.93712820334002,345.2881080201297,128.25659381000435,no
474,430,195,0.627216633905336,4.489167540186781,8.322983928941145,166.9695295482063,196.34595609528083,-49.33287939326868,ok
53,541,869,-5.9749927089766075,-6.294639556948249,8.169270285207876,-52.93844445917637,271.25311237954907,-421.23906695363013,bye
457,114,203,-4.306512161063647,9.286755364220113,-5.483512244719324,434.0598200844861,292.4874221659795,169.66116163287666,no
578,89,978,5.303063216970937,-1.9183894101338126,0.9412242959725248,354.22034296573247,-407.9299542910975,-362.19701231873216,thank_you
419,211,457,-0.5930548257373243,3.0727104543545796,9.100565245318524,-397.59938403710106,-444.3592273122621,171.18612215918165,ok
613,549,829,-3.6529183279948674,-9.622554908187894,-0.06587740606475023,-368.47477611429,300.9858684847359,479.1764972000584,ok
631,594,256,2.4525205472383877,-7.453614754894174,-2.128443597084841,176.23918530011088,-240.6159789617538,31.9726586169528,bye
702,538,528,3.055195119522507,5.64068539769838,-0.3350261191075088,-269.2316100196457,81.96980751181422,-285.9153454973392,bye
408,728,271,5.387915536816044,9.359388910405094,5.804315231038883,291.0298770117512,-56.28914478101376,125.28375087959819,thank_you
981,359,8,-6.865814084741617,-3.598892898890435,-0.4544473493352932,91.35814232635312,-477.96079633236576,12.929687791282845,ok
303,485,760,4.830345046539806,-9.256385301174703,5.665553625647391,-270.16947226665,-459.71874183372853,33.140263610646,thank_you
934,371,948,1.9885678422083704,-2.7826679603972497,-1.3660510871813418,-21.313202519408833,327.12524227879567,-21.89305388000315,thank_you
558,214,200,-8.848562693944057,-9.650637394419947,-4.959886575772343,-93.92370763296663,107.67756148872388,173.74057424355578,ok
221,732,58,5.548912565068223,-6.1525381547506175,-3.470545403627588,373.15935918940465,23.84307873684486,71.945362407002,thank_you
532,14,886,-2.338394373336299,5.0494403010747675,-8.44353070725668,-467.8375250229497,444.35208347175023,486.9950774543729,thank_you
157,954,392,-3.392381313407249,8.741767962129924,-0.052377111814472244,395.84389046678996,-326.88497407115517,325.8634210423188,bye
347,258,651,-1.038496968367312,-8.251018312622268,-7.03778150221954,152.0826828797434,-242.02916034120148,-235.30162228899343,bye
158,777,118,-3.0764984538774183,1.158015576210186,6.230940126694659,237.5381875483787,256.7390782356273,225.75652190497362,thank_you
888,462,552,-3.234288155801819,-4.9223830775193615,-1.5881885168621164,-497.39253660736625,275.2352279579294,-285.69965061526545,ok
883,119,398,6.161553354012511,-7.218817484121409,5.300046479834462,128.2394340372324,-95.10280356083558,282.34640808139125,bye
921,975,833,-7.509894912686155,-5.62039540216885,9.089208550772668,88.48616371102605,450.97843464376,-352.4423600226578,thank_you
234,912,330,9.412001357149173,1.555261349954149,6.989558994264719,37.205556386299804,438.2545777151706,-26.446166452761872,no
661,127,266,1.0986328874868647,-8.697309971120779,9.029273594916393,285.86685670588497,-487.59028493984044,290.6061983060746,no
404,722,519,-6.341520031573742,-1.3156280766316506,1.3587305374146048,55.87109639650521,-327.672097659275,-219.88729769343462,thank_you
256,522,694,-7.37569034136627,-7.2954429808967225,-6.693511320389163,357.0971895598576,320.2194416838713,337.11912513166305,no
676,687,479,1.8301906426996517,-4.54645895211037,8.70791908367401,-267.36851359036166,-164.7833151739917,144.15070903397202,bye
588,644,133,2.6599888769385593,-6.184913405134722,7.3700878119354165,305.9825889716998,-404.5373213001716,-102.47767089278415,ok
596,324,692,-8.939484579403786,7.659509996617942,7.2882598213385705,-320.68722717519427,284.99917442358355,-76.58329069372815,thank_you
557,319,915,-5.139961717424284,4.16022661742579,3.865488548174369,313.11779196898,-45.416494424790585,425.9915339198553,bye
904,505,934,5.909238424429347,7.3692515789494095,2.498325243721588,440.46351882856766,-7.589213284628158,-282.2089999876207,ok
912,525,354,-9.007507445129491,-2.3307433090461505,-9.70552216277337,-164.3058576896159,-313.6306111838287,193.36261517471019,no
46,49,583,7.101773278120721,-3.731732702926598,4.961081381762325,29.88631398018879,160.89505393892773,207.2942057415355,no
212,921,497,3.16324953052667,-2.388256102044659,-8.169297650343886,158.3290229231477,51.24131812261771,422.44969318363667,no
478,583,624,-1.3115348127359034,-9.629036085511851,-4.8049812779484835,-420.52833414550537,-293.32706221092417,213.16426875734066,no
486,68,106,-3.0713430205816827,4.4940855029711635,1.0298059070267378,-5.919281795879726,-159.6684915607932,84.46741805837496,bye
570,390,289,-9.61502072302212,-3.0045508620984336,-0.9653483024791676,-139.41502341175328,96.87928733617207,402.52253901629285,bye
565,382,824,6.504298915036863,-3.733523928464166,-9.684512204571082,372.4556312513081,424.87225543341015,329.1320296483981,ok
341,15,628,-7.145562920629239,1.9628213074106586,6.4797011690342465,376.6795187083262,420.3763503214917,216.77645483422623,thank_you
523,438,1018,-3.8091601627582383,-1.2750017658036725,7.576019161718527,200.77953954723682,-212.09409560251703,-467.4216176078255,ok
703,845,631,1.382139607256077,9.616867364477969,3.6374588699353367,155.72447459249827,235.6209777598849,-126.47958175963856,thank_you
502,868,146,-5.080147998574915,-2.8749391420239734,0.8213571731364482,233.68845927585676,275.5190805238095,131.8896722018543,no
5,567,326,-0.05719072495597288,2.277916844158268,9.214756777989429,-134.0130989971929,308.8230999827948,22.250524356765027,no
820,616,414,6.186856574774048,-3.766977987806966,-7.600875845036161,-95.48075324937457,70.76228475148002,-180.68167350215612,no
143,131,209,-0.5892413041945037,9.811899604213135,4.758201073299782,53.704722888705305,-489.4920019004122,-355.5760844902235,no
857,995,295,8.979546882391919,-1.097779305597438,-7.432787742096043,438.0281273644674,261.6762854462486,52.99658268892165,bye
260,559,397,6.950012407526835,2.6825762173360594,-2.3631040215316856,223.9998741195626,-393.40255017065,-214.08242413778697,ok
584,247,102,-3.339215292732116,-7.465566580946459,1.7096901834195748,50.989244496223364,-383.12861377959814,-266.99951019100365,thank_you
685,272,635,-2.0007575083212448,4.660484297273161,4.7417538100870456,270.41301489671457,105.62480264615272,-101.04177294506644,thank_you
231,622,756,-1.5334654595494577,-4.61579884248756,-9.92567799456032,-129.10968776157495,483.5205210253016,285.49143321426857,bye
269,931,507,2.5235890584902947,-1.0277349434065624,-4.788042272564477,230.46670114437063,-257.46052673420013,-12.14649763368783,no
939,837,890,-4.264085416229204,7.66266124654916,0.7640078281964069,-89.32375171729967,145.81088005120762,-283.5077895013301,ok
446,847,867,9.384982776450173,9.41105029770203,0.6574735832301393,-220.33859298501392,-196.34635426239902,-383.09685771995163,no
873,348,208,2.1736844120700187,-1.5085579631928603,2.75252869892528,109.7240475222925,398.72611361052964,-1.012736225200058,bye
221,483,932,-2.0119668251773293,6.696053359089998,-3.9229283826355505,186.87755965018448,93.51689211386406,294.3663984222345,thank_you
51,549,427,2.9001963098313475,-8.933020109002785,0.8105850217787136,-40.70643882043578,-292.52267234352917,152.81802365394037,bye
115,356,392,-2.091899789405847,6.951480595805251,-6.204264451308472,65.50073135550144,-237.8689495545717,-267.85111985675036,thank_you
537,751,825,6.355913619588378,2.5902064430529936,-6.26255571193089,194.0660748559568,-67.51926958187903,-63.29341431050773,ok
564,317,915,1.3568192110344253,-0.22587663216796017,1.5312792684521366,267.7100515575095,-377.95643797018727,355.2303633440688,thank_you
876,632,108,-9.16058993187866,7.799274102744956,3.70945170090682,395.57147908307627,-421.2666317365183,-322.34409214716106,ok
540,47,888,-6.464862651530785,6.906744450128276,-7.592000666374242,-145.45579373567188,180.0613957479561,32.08057068289702,no
18,9,347,7.299879460590692,-4.06109808092856,-7.544201961915533,451.47725285259355,-92.83493791087972,-143.7684912391585,no
814,232,49,1.2579965271357985,5.829767646895149,1.3060538292090094,137.2798101230875,226.22579187027702,-375.82024517048063,bye
391,35,915,9.006869530278102,-8.010181326752548,-4.5980849543270885,287.70188269894777,-389.9417995623785,-450.09607908910175,ok
790,412,104,-8.551553742786304,6.455278709347404,-2.152017955177712,199.7690434814383,109.86554790109574,55.871384645795274,no
628,461,419,-4.094787398280522,3.5091123604650107,-1.9850310470484427,-294.42827465159337,-56.69320663025957,-479.25112625962106,ok
617,3,372,-6.129132535208548,-8.242673381361145,-6.4289428143016725,-428.56161699117166,-442.0013455429714,-396.5538833070651,no
418,43,26,1.076805844574725,3.661603469482708,-9.973707331387471,226.28646401812023,44.80197827597692,-152.43571883825882,no
990,567,967,-2.344143378401813,1.6103855335274027,7.0630361993801465,11.05266779457645,-417.1957252854542,-456.47981464423725,thank_you
308,553,799,-6.854529318472135,1.8910020229008957,4.300039377953766,202.21336840832464,327.7197477910081,-99.55477354811512,bye
738,254,768,2.8550382791909374,-4.1827212974060295,3.81077116231131,-23.15719608454026,131.9574653900288,-369.634975823109,thank_you
863,739,272,0.7259673159437305,-4.670055999743095,0.9301027622663938,-187.76547958349596,56.96753376044842,-150.1269092998461,ok
185,113,1016,-4.505274974073981,5.2507022410804005,4.019393091562408,-214.98209074043172,-366.530995530341,291.15968709006825,no
260,748,648,-0.4045728443524439,-4.863730379655218,8.713767550952515,230.53213086999426,-212.542886495917,126.36434447665806,bye
527,396,339,4.914766300823789,-1.074754963802027,3.3134747245858236,-223.21991853422531,-7.12410286470066,-54.598922212490834,no
272,173,300,-5.894566508986829,3.8957799719756956,-4.698171961451001,214.67687092542087,133.28351363968807,-408.1666921448396,no
159,254,479,-4.141885065965418,-8.407674973451245,1.4112010348179602,-116.03987368262148,-316.76928125784445,119.14965931473307,thank_you
869,465,833,-3.0777802581176967,1.8909676522331438,-1.1535119326757979,270.8984043188025,-491.1337218663766,-336.29034749094967,ok
761,928,543,4.934528744020632,1.7875274529623457,1.1283826222429898,-357.1900742173304,-155.23981273070444,-423.41365613838514,bye
223,276,556,6.938451991018141,3.6845742177605096,0.35220954825650175,-295.02005679565445,-17.128545443756423,163.99601745960774,bye
255,463,264,-2.4722300711677825,-2.601438093886827,7.1755057045692965,185.9116057201635,-315.56649440319694,412.05989782100744,bye
179,846,541,-4.067582763321635,-1.0204045187232058,3.0360020676213413,60.2311201982626,-7.834494144794178,-39.40656322947768,ok
19,501,595,7.788935167033543,-3.4006137211061276,-6.224830441317922,-296.12165737840076,-161.51414143073129,-459.00408939188594,bye
623,440,165,9.987298643853574,6.163364943775516,-8.739664422492584,402.82701172682164,-44.910333893592224,380.29771741854097,ok
631,68,315,3.4070727932359812,-7.38778479927735,-1.5127242263730611,-224.05585258735374,-152.54224942140604,-433.0262338764259,bye
705,508,0,9.799612299783615,9.259079071506598,-9.687787554845414,-78.9286018063662,128.46784978680012,367.51324270158716,no
467,325,1019,3.1993255560382003,2.696723119584348,-3.6340522833332862,-297.712058127462,-457.1029890064283,-108.180626777069,ok
622,741,760,4.6692054401564995,7.738134487843517,-2.639570611215487,-111.9723816584858,-329.0947100557264,-134.60546137691034,thank_you
209,66,260,-2.226879969129727,-1.475370834704714,-2.4882225198015213,-8.353249888525795,-67.24913088900041,42.797379456451836,bye
512,303,62,-1.3406490600189294,-3.3544185921600667,9.587000486477855,-204.75294548708092,-143.70328444814328,457.08481744421886,thank_you
57,971,482,-7.117286720212097,8.014516202479669,-3.921982460550635,269.09367319648334,-108.36804404618294,398.7405450859783,ok
92,483,675,6.455000295302465,-8.022539422473944,-4.695450092427576,-106.06702135375292,303.7606948804797,-29.669911695232827,no
220,928,320,8.621180617744002,-7.657855369894444,-7.412381378649176,229.50999995876714,386.3316582473657,195.8232310238185,thank_you
722,547,845,2.4687626738822406,-4.013064470306453,0.22017671365225588,-292.9278246097566,-251.33121650242995,80.42925234341237,thank_you
939,416,200,-3.127053831092031,9.195499635326371,-6.926513875727586,-122.96450320682129,336.39106028630545,193.4615790631674,no
231,158,221,-6.919673492512675,2.661372197302141,2.32589425461569,-491.94171110446484,-41.210134709642205,329.327460062097,no
773,148,151,-4.696875405893701,1.083873932307963,-6.896804421233009,258.63758391371175,-226.1793807137792,-465.5061711314061,ok
363,26,643,-4.891791582963134,4.107126727108412,1.5334663551840233,125.88664433048416,485.4560710046784,-174.24014607210245,bye
614,986,625,2.270557683271461,-1.6505088784366766,6.525384783492527,317.82332492045623,324.8017914341673,459.32910823386715,thank_you
561,583,461,8.90074930727209,5.161470028415984,-9.149507329618148,-44.389211897286714,494.25331908653607,449.3363085249241,thank_you
373,247,216,-9.03456226084037,-2.135386040542448,-1.605060501635883,299.7406437128392,-331.80921557174537,-488.7791100225375,ok
621,100,195,-9.979554008111041,6.5272636971292926,-0.7790206556232899,147.58254427097836,-356.15732605214134,-298.5598700776337,bye
455,701,792,2.0036388862865113,-4.654098358469909,5.821442869562247,-496.38706746576133,3.3779529442392686,493.77004234436276,ok
87,95,201,-4.3187907584056955,-4.449066814039515,-0.6416873610891152,-246.30570491148808,138.6437600345539,-7.174924100514147,thank_you
19,383,994,7.610966846779139,0.4476661085347029,1.350715729126403,-6.10864779375197,-328.9399074666484,72.86600396685265,thank_you
1013,281,1014,-3.4549938418836597,-1.3847768327652972,5.824085071761422,118.68734971197125,360.4306680885426,-333.5798144775475,no
13,321,646,-4.2052479894222135,2.962316885693907,1.195169858585814,-434.40913533536286,32.013478663363344,394.3356087585296,no
132,395,233,-4.609787575634055,-2.7141849065284207,-2.8340117296083527,205.0799281837917,-89.05816677935252,-268.7357003508871,bye
936,277,140,-7.102943454635118,-5.388987018592664,-8.283154447588355,43.53609764725991,102.05367292704511,-310.35236998046344,thank_you
807,528,707,1.6306094855422124,-0.6038287423419781,4.5983125902515525,25.779306818285704,134.95371297228917,-271.8775966796718,thank_you
33,262,497,-6.6357279533158,1.2191299899429247,7.422763003243102,-207.9544419020849,-457.21671901620584,419.6217026410087,no
891,618,554,-1.5073768041941822,-7.147998923406192,9.40129074040328,94.82309949057685,499.89266670504924,202.84670717684912,ok
207,579,56,-0.7805589548870238,1.1343725146633066,8.531997615431365,-472.50711036822537,-136.08042319552447,268.5963944902751,ok
812,639,931,-9.590159062440511,-3.6148658950420636,5.948358176664975,-435.2996694960115,-438.4573530901038,-122.96364181574728,thank_you
198,292,503,-9.663854403577151,-2.150962302629842,2.8694386449145632,233.87008721284155,352.3231747755152,409.1770149305613,thank_you
591,293,141,0.4042537751365849,-4.413637418734375,5.629202916612767,-178.1086574660361,493.01867921231224,289.4079523393898,bye
582,607,721,3.920694644582646,8.628206555861198,-1.358325742958641,-153.0329243755162,316.35850921609017,250.59736250732124,bye
154,394,583,8.842849645608094,3.6667256256042773,1.8955242958166991,-291.61479674354814,351.8824898598457,470.94028367295175,no
589,512,735,-6.417614316860898,-4.7507937719863325,-3.0260038172162957,-54.37930790006783,125.93511421945095,-133.80316920665138,thank_you
77,920,538,-7.934823811278349,2.900626691039003,-3.465815700392345,-448.0065685886997,422.3255782209328,110.97364679588122,ok
171,809,639,-8.958241861456981,6.971448191640924,5.133835465520676,-199.63677642888632,-464.26144827253245,409.92969897721616,bye
288,179,105,-1.279168341740995,-1.9673958333446269,-0.9213443539287667,27.123921777697547,266.7238629542011,290.8889431859525,no
544,919,164,2.4629473467191367,6.599150183123644,-5.756774741379416,-34.36807844086297,170.7102283340755,63.378958225615065,no
811,692,214,6.811067135025283,-6.911701113200152,-5.961236761162683,499.6696431230338,-450.41502947599776,-423.78631521980117,ok
787,234,70,3.6528976458626268,6.45562729732336,7.183447231398674,-111.23534788308996,43.9735789764793,152.72343955567328,bye
1012,951,715,-5.832784218502853,0.8058848534473277,3.5552098872534224,-113.00094074569114,15.060345757869527,26.555556867852147,ok
878,830,664,-0.7645926720744196,-5.5405102398003585,0.9209214671623158,3.581777414460305,191.53422507697667,-315.81953851537355,no
419,336,578,8.206926926173107,-1.857172308881772,-1.9812252800728114,-309.6968897287702,-422.46858839082745,382.2531233425974,thank_you
6,7,89,-3.4651787504525755,9.759859848932336,-1.3836521842574854,376.30442295915793,305.278785328412,-156.75140510125675,ok
159,442,771,-0.025392698161370575,5.671120332848522,-8.851296116101125,72.26778886444856,-360.5965579884953,-112.52010648270306,no
239,940,873,9.171306692873934,1.5017272277023057,-0.9017971026431439,-307.8923608005776,-81.33538653812735,172.40154879641057,thank_you
962,538,227,4.694160111473952,-7.6967217619094885,5.909098212441638,293.4415913721323,381.288007501636,-11.201257958759015,thank_you
422,819,78,4.954807712833841,-1.643768341969995,-2.2402703980935534,-465.66782885714673,60.531605495496365,-410.7189237208506,bye
988,657,607,-4.953319911735448,-4.738969719761254,-2.328374949134842,482.5642005854272,-120.40908624526571,-112.55838264476523,bye
535,90,348,-1.706037633897438,-8.579978409892195,-9.685668339614244,365.1493347713714,-451.7977579541632,-405.5338820617669,no
725,853,841,-8.353156738065566,0.8440877743862991,-0.8432947488386269,79.63945553401982,172.2735172017217,-309.2495968766188,ok
69,271,980,2.1305173410106732,7.7837139968175215,-9.493246941040663,-388.70433724293355,486.546765306784,-492.82556164954616,thank_you
879,833,893,-7.9253967091501165,3.511997363482502,1.406988560175222,-284.7272267103286,411.7963987583829,-318.6869185153378,bye
215,4,245,6.718191644119095,-5.0063922403897765,0.1356676316462817,-220.5648296864369,217.29607757342797,-169.55264600163912,bye
103,593,271,6.291075740399936,1.4716921390757811,6.800169978479978,-258.968262096389,-394.707141744055,38.21843373229456,ok
726,898,1006,0.6721020224461896,8.86468566693938,1.6356122185144244,-2.4799895465542363,-260.5599065996058,419.27721118273223,bye
53,218,402,-7.176679336059406,4.458301058458707,-3.531452893555695,444.56037026714773,-313.15098054671296,40.3268672420553,no
805,117,668,-9.488420336096636,3.7894779881352783,0.3246201883382831,-55.82741523218948,-144.5383597443547,205.6035413643416,ok
329,592,115,5.934173350851449,9.363163324550325,3.994127114998376,161.56456817340552,-264.4827722084645,-142.32290869422582,thank_you
847,975,434,2.0028096642685362,5.977466223680496,-8.120724091792344,188.58320597882312,-255.5605540283068,251.63079356726735,no
202,581,529,4.218592734957667,-7.267529138024957,2.4214817694086754,371.5807252544827,116.7299353754056,120.46874605147741,thank_you
287,114,441,-3.9238574852726487,-3.047298260475973,8.332525639559584,-466.17871242848076,-181.29734403861653,-40.20598672513876,thank_you
44,262,171,0.1896547568782907,9.302814014753721,-4.017394087375113,-95.6699406524578,177.16287647247304,-306.23120510877425,bye
828,305,1016,4.943483410793007,-0.20589211604004376,2.5325018975282454,284.7351140860993,447.8896591461805,-196.45909200270108,no
197,653,15,-0.7487338337240086,-7.767251093576293,6.426589007004871,314.8670149654462,138.47791661323902,120.94608737575504,no
215,421,960,2.0276844553746187,-0.8279024065531626,0.23612794877248255,427.33261517401127,251.65667721037119,-73.94367563542704,ok
480,999,751,5.7945652361592455,3.939864681416015,4.359590680407697,202.79435981800236,251.58041528283798,389.3865567490519,no
308,206,897,-5.6955870946724225,9.950964433624822,-3.779793230214798,-254.8460538952565,-169.29721160068902,-265.1597284644147,ok
895,622,55,-8.681422212850354,-3.521893668735963,-3.878830941497105,5.665743084378164,-485.0420054065645,-426.9273477467277,no
434,302,590,0.6364702162161038,0.2817374975854747,3.3516804359712147,-467.65471208110245,-444.95203700578554,89.3485765054844,thank_you
331,111,102,-8.757484585598085,7.593614092995878,4.108177479469678,146.92834109824685,-217.93974911544154,386.050840190076,ok
695,416,283,5.331145887335065,-2.8946556388533295,8.740193990242876,54.295211508756665,189.5431836575981,-135.26097056021138,no
26,554,704,4.384228952675773,-7.814768868182855,-5.503228505640509,166.8362807612931,406.6831386482926,147.71133486816507,ok
165,858,516,7.634253429305939,8.97871750003008,-0.6356480782406173,430.14055338759545,458.7982621907463,-268.58737782285135,bye
317,284,617,2.791241960679212,-0.2311838657299976,-4.989730536722172,187.27661172043156,-474.15133615992653,58.47192167268838,bye
273,639,277,-8.656048584952526,0.05567421543943496,-8.398156782395091,-179.5500696252388,490.0872456327712,286.7921008626531,ok
382,184,884,-4.936957490207652,2.4240028920836423,-1.935389441050246,-301.26333612984325,-177.50278164330626,367.03159877668395,ok
364,740,611,6.158636891254385,-9.929267525935508,-2.5183850542359343,354.63620681865484,342.9562282351153,-394.88087014760333,thank_you
102,900,749,-6.657351653728245,8.622623511376982,-4.591317600356241,-305.6678567262394,-319.70453930321963,-143.62548370675455,no
959,220,268,3.969609356297747,-2.770978304509166,-4.060102177211671,-338.3904194046361,-437.1017423931408,139.6444419358702,bye
502,863,832,5.605186618409558,-2.061362752313027,-2.791763872974437,-293.3879193190242,-121.64457593731248,-465.2771319063478,bye
844,443,399,-3.3977640428951776,-6.517815049335301,9.776752655601872,8.8408481305068,358.925388530693,190.61520015082704,no
372,116,502,-3.5540505319418303,-2.4369677341507785,5.659155319345601,-375.81255684054315,-279.175084122184,28.03388280382717,bye
615,69,1000,1.1560536241829382,6.078870615521041,-8.571975978261861,438.1183305967022,-346.0426742481578,-211.43372077997356,bye
925,897,85,7.225726655095276,5.999833451110696,7.448263529734035,466.2537072400896,409.80432895019044,314.65445059405056,ok
244,69,319,-5.521875961730389,8.715936817909057,2.6660665279734275,473.8018532829989,438.337202621459,-209.94928770422484,bye
816,621,31,8.825163920848055,-1.9354105463840838,7.811875202438184,-460.8751951802802,-487.45180081109106,491.4150462038034,bye
168,426,335,1.9823736964021634,4.174430074971687,-3.1658062573954364,446.1975264800318,227.43573741548164,316.3701891133404,bye
627,643,50,9.842529427045523,0.14475110415114223,-0.7096227037656249,497.41493261742517,-190.79226347067333,207.9805013830877,no
652,567,78,-8.207725520093547,6.080455790382619,7.924541146162166,442.42910934548706,-125.29563003281044,-438.652442037354,thank_you
417,988,697,-7.468757269864819,4.250840182659939,-4.54853728172637,170.9389057627061,-30.897025048510102,404.31037198727347,ok
355,442,173,6.532836074269653,-2.641941494274487,8.310017524908307,201.23015240850089,-73.20902982548051,290.05530573755084,thank_you
477,600,947,7.295117912076986,-3.2665233149261503,6.569994242885386,-377.74706012655236,14.973784982105258,-270.9749207081977,bye
124,136,617,-1.0908262325813212,-4.951150739440648,9.611158818185867,374.29707707496254,82.36171574001628,-107.75181867311102,bye
536,503,500,4.2814235228466995,1.5303158097727554,-3.514848259672738,-440.3604153712285,-34.40449516207576,-231.3684483808571,bye
705,130,574,7.3511457489107705,9.276857031877192,-5.284936399904332,-182.2694533823602,201.56354048951755,484.4160341810665,thank_you
895,217,75,-9.137444235623427,-5.99866524764868,-3.382662059085437,491.15164514818696,218.601662842142,354.1964448055594,no
611,687,315,1.479008459865172,-8.094950901913496,9.092995919774705,-77.67212089700473,-59.640802573804876,430.2253026951025,no
401,170,832,7.069613330529791,-7.6119871584737275,-3.3385340789411693,-368.84377603474127,-357.5368519128914,288.77423637542984,ok
516,474,372,-2.0369011083045008,5.661973525002999,1.304236399144763,469.2946620490801,140.63892132012268,-43.651758929752475,thank_you
530,611,80,-3.952327877751463,-2.9979039143087256,-1.9264143482697165,484.1396470417361,272.9567123507089,-294.565750185315,no
681,991,872,5.914133701896752,-5.5126634461524056,-2.0755971103643827,-312.9573147612856,138.10952120394973,-291.9198430902662,ok
785,128,639,-3.284268329943276,-2.943117632529999,-6.132427802418896,364.8038087401708,88.0547658468156,-348.31715163332296,bye
253,56,694,-9.936514036309935,2.9066162565904357,0.7415908159518008,-109.57667380610826,-270.5880087653937,46.64955030339706,bye
120,180,754,9.191451752581315,0.9357424965656751,6.988085099344136,-118.63153551328554,145.13704081925823,419.9665228636426,ok
31,245,696,1.8424647270203707,4.87178813042452,-9.010299728922584,-237.30236810309833,-165.14378542378807,491.7980700457663,no
660,143,1009,6.390358374201423,-3.218517030364474,7.784531873268431,-455.2897254451035,419.55886281328503,-212.7001999632352,thank_you
777,50,731,6.506031246854292,-0.9594285307062922,3.3094593027459887,-231.99101631477646,153.72009275998073,197.31454029672932,ok
36,367,70,-8.671791592545343,-7.96063262074153,2.334761611498058,-446.223094666948,-221.82032329169732,97.09801561037784,no
688,458,968,-6.582796012270704,-8.53882707934437,2.5180046584798443,424.3720463599634,-27.073090636069878,-11.063883123688868,ok
341,217,853,-3.7775863848070523,-0.7548951431179916,-4.074603280910612,161.7206723927285,346.5812758850444,165.76864381204132,no
12,615,665,-3.5860142991735433,-3.9680678510815293,-1.6971099226342456,386.6226500163915,-164.53604881735254,-128.63698101993106,bye
182,894,756,3.1757223536182586,2.2560114427226168,5.985800118084292,217.29068147057058,25.440570152381156,444.48477509344957,ok
656,566,651,2.4626584150536956,-9.139956691108562,-3.872379261274208,-368.71312891736073,179.6699732515226,205.44886770633696,thank_you
264,256,70,-0.10820443980372474,-7.564672448008691,-0.5995958085460646,440.58153673529785,254.52933882674165,254.20109199244473,ok
87,857,45,-5.774725353824641,7.303816222127903,-9.607354572246933,399.8930536327671,-326.10782493525517,-257.57790499392604,bye
939,155,46,-2.3603306061939318,1.32623243038209,4.671167058710132,-151.92392209896434,65.15230467728907,-331.41799650238056,bye
461,564,590,0.8718793693033895,4.241090673824544,-1.6459564664278865,-388.4666596483235,412.1999004962014,-105.65920690567697,no
45,441,421,-0.6402926779211615,6.839442374145914,0.5071753694720744,204.1547507888738,468.3597815096939,266.67248533615395,bye
391,840,148,-7.454149338098432,-0.7233131409989557,-7.706213643784827,228.36130273672245,156.14504255935822,438.7959097528575,no
118,955,909,2.990209870038477,5.221207679349522,9.834284575748736,396.8290448407072,483.6608041599857,-72.6701740259922,bye
932,698,129,-8.538964463786789,0.49171158147048644,-3.9506434603030804,-447.3442405489201,70.73524897614084,274.15679249716595,no
530,875,455,-2.4361063383783943,-5.5450245945259224,2.699793231929007,-358.29616197262817,-57.39497021906669,-29.592380533190465,thank_you
446,661,638,4.2005869535045814,-3.24687662398121,1.6247268970893085,98.24879287918236,51.58745894824585,-204.77175044453622,no
731,775,876,-9.59952930960587,-0.19299117888678374,5.701844078499807,119.13155087008249,-384.28760573647793,239.26515072584766,no
941,761,630,1.3996563809063218,-3.662288956554585,-4.1232608875607895,-466.3903376849937,-98.2840803146122,298.2021339813273,thank_you
744,944,965,-3.309580517134054,-3.289446173002033,5.118546899944745,-103.0679489383416,-41.59494696947132,-297.1592059193198,no
605,809,996,-9.82336313154531,-3.252143375024672,-2.349965386285313,84.16173127604907,348.62779872097815,-194.83049795466934,no
966,922,868,-6.192334578780563,-7.543200422857916,-1.7767806830730173,237.91133315173386,258.64859274244725,-5.223156526337732,thank_you
762,934,504,8.81892386541309,-8.307147855754973,3.454250529735404,-183.84930822167144,101.42658522480076,-313.4781702331233,bye
761,722,928,0.4229781101018091,-9.070079206173913,5.685715434809374,-16.096506978158573,-152.72276512373008,428.8342987537925,ok
793,24,1023,9.944544092582635,-7.780874779313265,3.3373327224111815,314.05487231200925,-312.96541430734294,91.33391256074844,no
743,805,1000,0.4963350072948245,-3.12585815728764,7.99759041142304,453.89506389774044,-152.23497908537212,-378.7967226283073,bye
45,852,773,0.8787282458053642,1.8774361156611423,-4.296819409798653,-269.68532461015445,179.80407095913188,-315.97013531753794,ok
885,663,243,-2.1631397413429525,-6.237061455811821,8.012334642038986,-246.95779418010378,-236.9622009149669,454.3553453248445,thank_you
507,535,473,-3.799191625371714,7.760176920052761,-7.382729481132426,439.81818743387544,-73.1133042908341,238.16858569661827,no
557,763,381,-4.969088937341104,6.167648624788988,3.190606380599611,-104.08884923731642,-113.22976511831797,234.40508450498612,no
970,59,102,-3.1315876773865226,0.4105422561832732,0.9526130276035509,218.34832452074272,265.5900637910602,-427.50140599494546,thank_you
525,466,488,-0.8029783819913572,4.484196616267198,-0.1072811916882106,112.26522872987618,383.78706226014435,395.2988377089471,no
596,433,36,-6.1601609953841985,-2.6734295060248314,-3.7817594227564344,-214.41232020594367,199.37095681097696,-56.26463744139545,ok
830,878,653,-5.502498163886083,-9.264444145338203,0.07465490616468351,153.5622219580249,-158.39773906696587,159.71732263992624,ok
839,65,548,-4.569104626631217,8.086656950650799,-6.764532872305935,155.56590095697334,-66.82295102411274,459.6892191140139,thank_you
2,909,519,-1.0148021613832174,-7.44413023484356,-2.613581115766488,92.44318540907625,-356.64984594627856,-399.9876196434431,no
27,564,742,3.0562673362848614,8.95874692759303,-8.026381650322453,-400.3391751504871,-331.90255223339017,-17.723540513421312,bye
380,927,332,7.122923005725745,1.437651765322201,1.4369319957263915,495.1718223740377,-335.707432473485,-450.38726333806824,no
156,105,396,-4.257363256257134,-3.8887387795714012,-8.084642276007461,-99.5835388291726,-369.4136424386898,-0.454576676284546,thank_you
854,95,295,-6.325433193171253,-0.08950753376310772,-6.7931071218966865,138.25098539698888,-320.41877149086986,-247.74058951242895,bye
913,987,106,-2.423050702988901,0.03259617846188334,-8.290663970250375,385.76169411261924,-297.3117974216424,411.06552927387065,ok
930,687,859,7.887661527437114,-9.534258411148361,-2.373787200958441,-76.71151158016363,-388.1540562023671,-101.50750572691317,ok
510,550,953,-9.80278543325721,-2.8908029623172276,6.839169088366969,273.9250568055486,140.260721884227,133.8724460520791,bye
332,167,529,3.557372321154908,4.797315990858348,8.137927832676553,471.824424679406,490.4015345821996,360.28726481454896,bye
843,41,824,-0.4567990717683692,0.20138377901415971,-8.562210907999733,-141.0652397469517,379.18674465225615,483.6918584171765,thank_you
686,878,82,-6.779075700786398,-5.115397659808316,2.6910028172325404,-94.73042976726333,-454.3972761739138,3.819370328545972,no
113,103,933,-3.5795694745106665,-3.2978027992611203,3.6877084918414678,405.5760589965687,-76.94119080327522,-44.24229713854413,ok
388,844,287,-5.500999122459323,7.2610878623189805,0.6753988486404836,-340.35713218481703,359.3105792327723,-424.2603547035413,no
486,203,981,7.556643357802447,0.5109934030045906,3.339697229390918,-471.4051616405577,-365.3251820080036,-487.26105666278494,ok
842,519,705,-0.3625323211001952,0.5670424510247187,-5.326185691138095,408.88900484911187,347.64514665204274,108.80209249849611,no
249,974,1019,1.2618855574498546,9.2293491810202,-0.20711576361967943,321.5915741175803,92.70063783789931,-434.535647852354,ok
570,281,460,1.8737523867404136,-3.582372019267133,-2.1824830192834295,472.58303255133205,431.2985525961118,-119.62106296152677,no
714,907,214,2.7923424920471227,-0.409177497875433,-8.20584097120738,-441.76221728932177,376.03911426442517,-496.3935638935385,thank_you
314,42,280,-0.08888619248140017,6.2342719544166805,2.51112879444978,-343.82266955901275,177.03432205871752,115.22749896567075,ok
238,946,731,-9.642529383273683,5.178244977740594,-0.09569614656907532,-394.6874409101911,157.82265987269545,-74.58483955950379,thank_you
233,109,953,-3.3055462617069615,-4.684011561426549,-4.496519461948337,183.4161322937092,-286.83579760809187,-372.9792302137122,ok
302,986,458,-6.3225351855801755,-6.978179047892283,-0.5262947919325711,106.01007374714322,-383.2470328419915,-203.63239315917792,ok
606,209,800,3.6028568582335385,4.014091523747364,5.50596036795006,-140.66480061274035,-84.60657003120167,69.66069897192449,ok
990,748,343,-8.865906972599067,-4.846876463856105,6.03315525616128,-442.576520597755,-313.41996050687527,156.713368009977,no
652,867,193,1.2760678222328856,8.453516570484823,2.9905225749873825,139.66198404654097,-397.5832823222411,-37.6641203365532,ok
333,830,157,-5.787365554513981,-7.415046120215479,-0.6450433319967246,70.12048511505668,-197.67326672710652,303.9591160909458,thank_you
112,48,464,8.976916769341223,-3.6336959973044696,1.514992784076961,-387.0967889393843,360.4899427966485,-387.55958829701433,no
620,114,103,-3.28918115626929,-8.904255061501726,-2.2996925728876576,408.9097044737141,-482.85184598163875,-415.45427738759224,no
361,154,33,-3.495576172507315,4.066106137267562,-7.468873140115235,-301.05029032800945,-207.3623182778244,-455.75573098219166,ok
856,648,101,8.467693359814476,7.825252978307965,-2.2875880522781618,243.50915214385634,-75.94781478550772,35.827839449442195,bye
800,502,638,-1.6530415939171732,2.717490546620141,0.6066551213926843,385.07586254294824,10.569749615286582,206.23170423445788,no
96,678,725,9.257246683714843,8.755060310229673,1.9766802930116807,79.47499069370849,-318.4224916170108,-369.4786005774703,ok
957,832,324,-9.51659295732993,-7.429920429975807,8.716019521092417,-253.1510947017487,464.22019983803114,138.94562185539246,thank_you
846,710,943,-3.873108495957074,-8.245321454746023,5.546668900612325,-190.7514823748586,78.87304357218954,-23.05223381046528,bye
15,985,807,3.323859205328624,6.768254623347417,-6.960148771106454,385.7475337188323,22.110547057044073,487.3445001511152,no
555,70,690,7.81713929055277,7.110223507730154,-6.5163558669414385,-201.74284362351534,-491.17741106965883,217.47360926641147,bye
953,1011,591,-4.871888139834322,6.6207905421425615,-7.990104815204919,246.19048331730426,-14.284620603992948,157.4733351916259,no
375,518,140,8.609551839273365,5.979298050674913,4.763634544418355,490.1652122554053,337.6706294551841,70.4497348723445,bye
741,711,473,1.8824293299837631,-2.7554327212267964,4.12244556983714,499.81671936267776,-280.3554569487573,497.3661815497038,bye
389,335,30,6.020164863958321,-5.650758328172245,9.727258033937623,33.47974826933137,-148.79243161358704,480.45917085457734,thank_you
619,66,883,-2.0558539138620553,8.5760803999558,0.440468353286974,326.55579678609786,-479.42853531230446,38.11512549452152,bye
216,492,934,-5.7563923486625335,-3.8599963430333206,6.528298576977637,490.24986792119955,476.92751423379525,-44.81665266573833,thank_you
398,649,62,8.224708308953865,-2.031846356719356,1.528797172855752,-125.32711015801777,-433.3482028719592,-37.885077298247666,ok
259,753,559,8.662717368124373,3.991179189032664,7.48173425054874,-247.59041492969413,398.2211239095694,-71.65760967663437,no
823,966,86,-0.04849711691728942,-4.132878400120248,4.420420786055031,-385.7666441578168,-187.0122858195453,31.398306996322162,thank_you
319,212,303,-9.87009968001487,6.382604431220024,2.8576802998250592,-359.1003619268739,87.55640198587855,-226.41573218562928,no
195,180,60,-7.804340926591911,-8.599307527364374,1.3024534196610063,353.5563636206633,179.31553996600337,426.78878311442656,thank_you
477,765,395,1.4605592046344356,5.82365334777869,4.459410488859497,88.72309030707402,-359.1708325688855,-9.769918538064758,no
417,612,333,-9.524465953962276,2.037026452356084,-1.6069231465797902,373.7091753924858,-56.240622219664544,342.0078118386092,thank_you
474,862,951,-2.061761520266094,1.459872882271858,-8.068468385886717,289.4550890321684,-174.53389975335767,-24.696325332379956,no
606,598,785,-3.932601088559748,-0.832459217226786,-9.200277424043184,173.7446300480177,-443.39753439453466,218.29027391024295,ok
567,696,410,4.286965508044094,-4.459088074331552,-0.4195253678165223,109.31219190686068,333.19365439318074,-163.11803552341996,no
543,602,283,-8.888426541041294,-0.7185942913752683,1.9858316444028272,-451.66109582190705,-454.83224350252226,124.80685773326047,ok
1003,247,465,-0.22537462045425016,-0.9994297596262527,-8.423019388587491,372.27519600319226,153.25795948386678,-1.6285545490806044,ok
230,213,79,1.5822853975121056,1.675083775661399,-4.261929021757956,-82.15793832028572,-185.92262358015302,-132.88574346639012,ok
883,358,691,2.345821521052354,-4.368514282889395,-3.5593558804902585,59.78685707139198,-307.8706727981334,381.55626106800105,bye
520,248,783,-1.8968465596611832,-8.44808836047702,1.255910704165025,-478.0464981229793,167.08605133554533,-387.28831725109103,no
702,637,76,-3.9126443314089805,-7.098211067217235,-4.430350879144218,436.073501862787,74.53771452620583,-13.07685168088966,bye
872,922,953,3.6498606747429747,3.983548629231457,-8.087028008879866,402.7404610920015,-184.7437426251701,-305.63092673386325,bye
199,949,732,6.9513809620499,-9.55015340728919,-6.702865181068997,43.27802991810563,12.960748259239153,361.05509121759144,no
845,880,904,3.872352755657575,7.128860892908598,-6.521043967916135,77.31163316835739,-253.76289879379055,-246.5306552843366,ok
672,515,793,8.64204730914443,3.887946549598267,6.85389888445523,205.01721240348866,363.6964590026922,133.4303401118217,bye
598,87,539,4.345270507158542,5.361730826154325,-4.31360626043417,-235.3051035638499,-186.18121967283838,-334.4364849146459,bye
20,662,360,5.292374680272367,6.719688981869496,4.293834678295138,-278.0843772866974,-254.8469704484686,-95.08633052916338,thank_you
310,175,76,-6.641936067958223,-7.545791121396377,1.356774926786116,174.02294660163273,251.83371105965114,399.35719564936426,no
587,722,508,-1.609207109465764,6.449021819401327,9.540775072328842,-395.5775538410918,-482.4075120060851,-333.9355555980595,bye
952,425,163,-0.2988933808806955,0.0928487531811264,-4.543546622395955,-45.93799527661923,-231.9882679139247,163.19582534833967,no
897,770,8,-4.874136754107847,7.710476775063942,-6.832539589415996,-7.239576000909949,-124.60477934882687,-295.48962944404525,no
652,602,174,0.5707972071257572,7.73173202120687,-8.959243246108793,-118.66302308483199,382.23796179138185,-84.25094746783412,bye
637,770,461,-4.18416111556305,-9.516439124916596,-5.180806754374389,-314.7318243022653,450.4418025483442,40.616884374599294,no
762,923,306,3.7500418560883197,-2.342695690329222,3.681417728307853,-144.68373567464533,216.47796691394979,77.30641818974777,ok
899,702,587,-0.5942304659364837,0.5279759173054686,-8.294835507262787,-162.44274643955004,-7.468218990340233,102.51133755315539,bye
595,80,244,-0.8238609146192886,3.5672017956580397,-5.105963097006829,-0.7343253512495949,140.62154905768864,140.13141539092226,bye
433,926,121,9.672850620656234,-4.2762750663173215,7.106167363680239,174.68084157851933,-85.99894831866692,-228.23130232620247,bye
370,137,184,-2.151103029148591,-4.957154786706955,1.659058987290404,468.2351235261706,-201.17416815133214,-98.63251428284093,thank_you
559,432,31,-2.754091348208634,-2.374685618219054,-8.60956919493609,-355.83673982567177,450.6880681396285,-462.6813364249356,thank_you
890,469,997,-3.6279125743469116,0.018773834997888983,-9.046337115004734,373.0171099410818,-384.6097709900762,268.75697653137513,thank_you
77,349,962,7.894984419515964,9.022924628108267,-8.777542493484663,-215.8219996097376,-153.60643194989098,337.09950178890233,thank_you
541,125,761,-0.06552347803643599,5.24216933394875,8.837501002945054,91.37277000140568,399.0889599605931,-300.76323651445443,bye
284,880,568,2.0002895496127095,-1.4135766612458944,6.997428571221093,46.73694798386805,223.14143058741683,-298.55603537031817,ok
647,916,309,-6.3836304199521,-8.912676431196324,6.898800840375493,56.94841862826297,-470.8985486770234,-457.9635978095793,no
139,867,371,0.8188472000985385,-6.629588157124813,8.484335244870916,223.35861171881288,-476.9003265757529,470.3838227924874,no
552,308,655,-4.507036142630234,-0.8815115136116596,0.10510780501820527,-118.3116942510041,16.512462624574596,307.18656811722906,bye
997,854,829,4.61273842525755,6.276518001974086,-5.05310657713312,-180.90003676314439,-15.746943769978316,-139.29679709396794,ok
281,229,595,6.650566975847642,-2.386089286453121,-1.9730399152296378,352.8345731854773,-57.008461343681745,-18.09172853017469,no
561,459,991,4.296213842625551,0.7699330149011949,4.377281457676217,-279.90495972572967,-197.6562381609911,-208.0330393491314,ok
257,344,55,4.604883325405147,7.836097721702043,7.520657430425302,-319.7539626888569,486.638719813639,97.24396832208436,bye
822,309,790,0.2494940823903402,8.275925188532579,-1.2981814660095132,-484.39256334473913,-228.0126770166185,217.30841233350827,thank_you
359,952,272,4.242361126682706,-5.684500071146212,0.707619107641225,-289.4222179708132,-9.959793559438083,-52.631522008127945,ok
439,19,463,-1.546261289836794,-9.128101564148112,8.635659865525064,18.53143331670833,-95.10690317693371,373.59419329162347,no
269,880,677,3.0297830705922593,-3.8917893805697013,-7.850027257811418,38.50887301411353,-329.7505740382579,17.025862218809948,no
133,560,455,-4.819215797589706,3.916046296515603,7.245984339482479,-245.57950880446566,-297.3811808747214,-355.7467309221892,no
745,1001,978,-8.604859753759797,9.022244019525331,-6.813850354961282,-427.72582995880015,418.30274200977294,122.29137583764157,thank_you
639,646,669,-1.73053471756063,-8.459360000317721,-0.322772994187595,244.64079634520624,358.27972285595513,-37.769034092197444,ok
103,540,248,-0.7644368843902001,-9.430323789014569,-5.6315374267388085,257.9753485622997,-300.9556941796476,435.67186308172575,ok
765,559,697,-4.8718568362262005,7.682944259714436,2.0589526138120835,497.8363962915615,375.6626239095135,-108.10607906408654,no
94,476,993,4.554190368144752,4.962905382062823,1.1714684341653214,400.02957053471766,-290.81386991915747,-97.13426084989595,ok
848,268,77,-8.528990420474416,9.844971583111505,-2.399852715184963,426.0620645176425,126.5463217476971,150.77338978161026,no
728,2,533,-5.545033512416229,-2.0641423706869366,7.2660702969024875,298.20382574394193,-418.7194766793062,26.986218326428002,ok
572,769,107,4.971294369072536,-1.678981897264613,3.1962664057611967,115.5028533824991,380.36962625911815,-125.55012246156514,thank_you
479,15,272,-1.2575145251997526,-6.553763254051008,4.424102499238874,-371.4540423954895,-448.499700534533,489.77441568008953,thank_you
779,605,763,4.105672480786248,-7.683056948053231,-6.98680523584663,122.31329745587766,54.94288925113665,-197.81449000058313,bye
240,357,1018,1.3497175556719263,1.574360211804759,7.663313559512353,-444.0441395853734,279.711525180385,-222.47120801497147,bye
12,645,14,9.014254999947248,-2.7142999741033496,-6.659196727599632,385.2991112711924,-383.1652635893188,364.4276285221034,bye
146,812,369,1.9559166544566597,-8.393671041095098,-5.544300715800796,-18.17866458580255,-95.51973249981148,-496.62705644944447,ok
939,838,303,-9.702620513089606,7.739741390466396,-7.438897230062391,197.4728319758002,-458.0498485099499,-298.74683909509235,thank_you
751,132,671,-2.9424529899133205,-6.032870635013339,-1.1928158406236893,-447.756336304036,182.7525773399592,90.44668826197608,thank_you
600,311,204,-7.138786355905847,4.971686940070656,7.754184635046194,34.2484229228254,-192.55040503864808,-337.54947215533514,thank_you
94,966,980,8.492673551954063,-4.355428077637777,-4.951049607802808,-198.73660214663744,59.39524463846999,485.80392272358824,no
826,481,112,-7.919750914298394,6.258096615055983,-2.524931591540936,-215.03173426275436,432.7322704203617,-35.804377578368985,ok
292,894,679,-2.2458667373782504,-7.632063171446919,6.92132840150844,-110.34408529681747,-194.14189200515762,97.36407496055085,ok
24,543,864,-5.478016127466157,5.12143220443523,2.3563055951777834,-499.3605391394651,-451.3725283647223,-339.62653489480687,bye
271,304,252,6.934439807934666,-8.037622521989752,5.032327872925537,-33.339118279826494,175.62776769870038,-210.6218991280722,no
504,268,440,-3.8286700482216602,-1.0616842428611335,-5.719999011277704,-13.43331639206167,286.8411345141675,114.6247826794156,no
165,413,185,9.8378696628529,4.680087011992091,4.329797266651509,363.1309158390641,457.868559877576,49.55337328639769,thank_you
938,24,858,-9.227667887754983,-6.535632376261988,-5.44778842716455,-51.474392117517596,-342.19912297433416,284.36394544116604,bye
1008,980,226,-7.434464550748682,-4.286700223065541,9.746279644213221,-136.44370613232712,-107.86007488385019,-230.76682142568382,ok
761,315,527,-5.507224471417818,7.295339841843955,1.1977231225347467,494.74705136246337,344.1404600254748,153.54214670653403,no
86,570,667,6.22212080400319,7.702386418152919,3.9127851608627395,71.2133246024963,306.8713932688795,-209.02449425113457,thank_you
653,724,353,7.570344181280316,-9.101290950945476,-7.631968317169944,-27.386791365860518,124.79570733386242,86.75261974612033,ok
645,667,622,-8.570972387811553,-6.6381882929404945,-4.9868803991686095,-4.064165451620568,-230.63145479730605,105.03096768520857,thank_you
984,1007,0,-9.350797164754471,-7.65056119454282,-7.205186808712913,309.1812975088051,-215.9647093492224,-378.16088864551125,ok
790,825,552,4.891137142091587,-6.406138106973939,-2.196585694565538,-159.32363102983913,-375.99700537585744,48.633110686266036,thank_you
637,275,559,-7.33295986492773,9.40375448612545,-4.317282715892031,-110.83953731405438,421.8536737859097,-488.0617000458175,ok
827,929,926,-7.340028258507216,1.0331049758091293,4.658445192611385,255.87335933746533,-327.06848536055463,1.2107513746914833,bye
490,388,419,-9.552669310111416,-0.6377521909014643,-7.825820407436977,-427.01626038623056,72.88660117990639,197.52188860807496,ok
907,721,619,-9.003842448331563,9.689347461852321,5.041187369007364,365.16915814325864,84.35141698211294,-427.1672710100113,ok
140,443,160,-4.726490828090217,1.1391225972147083,-9.08590350722825,-69.79730353203007,-130.39455880473116,438.7108164170271,ok
867,998,160,-8.699890211783874,3.222358546910492,-5.9596432535521515,81.29297550564843,-147.48153899454485,-41.24446801054569,thank_you
102,426,870,-2.622418166814489,-3.344589079016396,5.8392998392920585,257.4761592598352,168.5884185582796,438.4162756240619,no
225,56,127,6.655500624546981,-2.3577027098096277,4.8555328221578975,-233.94807756065518,-111.70222205146098,-392.6015763088675,ok
901,696,721,-3.473594853568147,1.8881876761814613,-0.47347772162273216,390.3142083206511,-244.8846066619993,449.9025944195347,ok
574,970,150,4.556683251587433,-8.604284319990704,-9.000345698448964,479.2249722566107,-100.86829759996908,-390.8029005746533,bye
293,565,443,-8.121800703379398,-4.882342279104497,2.1978748333859865,-5.725638593875431,307.662077665546,-38.50420154866396,ok
895,720,766,3.187503748389858,-6.063765010793858,-1.8655179205180321,436.93736503267337,466.47845513118557,437.9920667268657,bye
305,367,470,-3.6650563348513003,-9.682132137199929,-3.669436996040605,-498.8713774730172,135.95023045384482,-267.29179961112845,ok
253,940,462,4.9950575739407626,0.7380254104084383,2.8082127365306846,394.2378296355283,282.1012254841064,-465.21501914126594,thank_you
179,341,729,-7.2749597188723625,1.221056790477581,-1.2677087559654723,-188.95468024869444,32.82486131261021,293.11067502822084,no
39,804,29,7.957667555289639,-2.3212155392548217,-8.151577990936428,-188.50457527239803,124.82314209343781,95.88363766900989,no
775,851,472,-5.148455942041268,-4.625450610704183,8.319009410246888,-271.9111352300606,488.0866567365598,13.92119290144069,no
700,303,556,-2.9372441343764706,3.0411975198924956,5.569861989067579,-182.98609884909808,-61.5811352980885,-465.65661564678163,thank_you
519,763,79,9.003614216360834,-7.306816772310862,-8.872436174188952,-286.5154163013649,-433.74530304580003,153.23126880684515,bye
615,373,38,1.569647194617179,0.3723006327066809,0.5012774038139121,405.8691063099717,457.0069178193546,-328.3766481154352,no
736,949,239,-2.684569620739561,5.361479716212399,-8.332448742027434,399.02372721336644,293.06172090354767,431.1966802046953,thank_you
545,815,556,8.992042940672633,-6.714040320950554,6.745797181169699,-397.7886850793775,-101.68963213642866,185.726951075682,thank_you
235,111,589,-3.4184516621993595,5.065190771916374,2.2602792210394362,-357.14157113350757,482.39505362276884,207.03388803383643,ok
462,877,336,-8.102585746496406,5.215890183067959,-6.551017328538631,362.01863901066656,-154.46424965137385,-267.4197273887196,bye
227,5,907,9.936977757188398,-8.801467035390901,-9.585173143875984,-101.06222912725406,-127.8798039919713,380.75383805671834,thank_you
699,929,860,-4.6431015888217235,-9.624313478256363,-9.368379757071587,-330.7283226607217,109.73135318992081,37.73257078320103,bye
824,702,799,7.0251569739921464,9.478708119763898,0.14730944129659562,10.669402436567225,-225.65261384464333,357.08417781423054,no
482,845,951,-6.689184103538254,-6.132346810023501,4.687469573535477,-83.33195007990503,198.57148513073275,-229.052525167724,no
429,943,279,4.627079435547561,6.4427841820020575,-7.583190973320817,-280.83844626203484,-347.1496960494941,255.46171309824604,no
21,278,115,0.4889878894450401,1.237013060905971,-5.574318681700849,220.75221827763437,-391.9746806418465,74.5669036600475,ok
342,381,268,9.618131165802591,-4.710556849260064,-3.454801096609355,131.2893123327309,34.87800756415561,-451.58069418941835,ok
39,851,1015,1.056607121847989,-7.400591267623748,-5.63846435877694,-400.33838644455943,55.49368239440116,-94.65767622671308,bye
172,12,915,-9.499696962182917,-0.06645452844544941,-2.173268746256827,425.3867143253425,-393.3449303703094,-316.08953487653514,bye
438,302,334,2.0775597924817575,-1.8529037674110036,1.1923001153015242,58.469965730069134,464.176261131151,-140.8264121212439,ok
178,555,311,-7.093670873267479,3.9777217023413574,3.698734964826185,-249.79551293645818,73.28665760708373,-116.64836573477754,thank_you
597,616,52,5.9708183056417425,8.083370990954535,9.275503644144571,-293.70818492763647,-348.96500750307393,-25.071646971615223,bye
132,159,67,7.131363929797981,6.1049617392687665,8.61687339366389,-364.0520186277985,-188.557475667701,100.29044272846306,bye
350,153,693,-0.3581296241057146,-4.510958995903762,1.4025394965782905,-75.36259360964925,300.23421393316266,70.97765249819918,no
524,753,33,5.6644291410459715,7.578664369046116,4.683001129127094,-364.45898690916323,23.231527865531802,-461.0085952950049,bye
539,180,795,-7.097785290367897,6.667826282092083,9.017444092508558,-84.18358740477385,-311.8516514534444,250.68921848872185,bye
505,525,817,-0.15843626928707977,8.582724674435365,-8.330561109171903,-351.2295717658823,-397.1510279381952,449.1838844727682,thank_you
83,179,385,-2.1211147061883073,-0.8267835792402458,-9.887304802771418,156.80752152388936,-69.2255877625152,-151.3187110150334,bye
992,376,248,2.226347741061627,5.371503448187969,-9.404004725408335,285.24202168635827,-162.5852913135658,-320.25309866174143,thank_you
463,803,110,-9.1104562239368,1.8331613104734075,1.2669872474592765,49.522747522758664,155.91735248197347,40.00156311538524,no
829,775,93,5.042456764972547,-3.7899449490103336,5.2566685060506835,180.05687485489727,425.24698695116535,204.91292824414404,ok
860,167,409,-8.417414210506326,9.888620050855266,-2.658500985099308,438.37873708406096,-252.2697142258412,178.90489452766326,no
342,213,178,3.1294303506032968,-9.233850663206773,0.9047834945523725,138.37152957060778,355.2339332828451,112.10957750085822,thank_you
279,149,46,-9.630855489201116,-6.754548548818507,0.3273263709707379,-135.84180181611737,420.46197844520054,-353.76774787179147,thank_you
865,15,793,6.63776127513459,7.850847250637898,-8.10458216815961,-50.519841325084485,402.0025994699015,336.8248944029983,bye
262,90,851,-6.506007395524374,-8.78874313174733,-3.5682347155190204,360.52522607203696,452.0773299454354,-74.3784375811847,bye
165,119,873,0.30994951953980987,7.736413346870435,-9.61129689635396,-369.2796810499036,342.1086221292753,-278.53141696813,ok
292,955,603,-4.7701419254476125,4.304429521164018,-7.785886223869783,-174.26297754956732,93.48600539667018,-413.7338589369035,thank_you
508,252,375,4.45294404122137,-9.266319892109154,6.237164458195558,77.28006897048408,-90.1539012897581,-83.28088502695095,thank_you
579,59,723,-3.5729779962055748,-1.4135991429164676,6.5882699449663775,176.38956940843445,-8.31221396622874,117.97304684730739,no
225,265,586,4.492183871766343,5.0894295000447425,6.038926400901396,263.49907543170525,372.6121748775853,165.3777091515077,ok
169,408,889,-4.302575863290469,1.6620056926159936,4.5363728190447326,-181.79320400391288,-198.60162258281753,462.7369113972567,no
597,30,201,5.0494618187152,8.71742583928916,5.866256927998034,-354.1408659908497,-340.7383056589056,-346.85191633624254,bye
644,20,444,-9.387890073261914,7.352880658239997,3.419646825390368,454.8392096765598,-359.1807818662048,485.7736651975521,bye
447,730,918,-4.333773292523031,-3.3470472933170807,3.3966667763257714,-423.6077828679605,326.9946099050004,154.67588057222792,no
689,592,932,-0.02732987119442143,-8.307456089598194,3.3472359498361612,-404.19464421311454,261.4856863300977,-45.770942292798566,bye
1001,288,296,-9.09880836160549,8.885140792913027,0.28085579356408275,-5.057458098031134,-2.354658953658486,388.19422584815936,no
854,542,307,-6.2793187725744275,0.3457353553585314,-2.7330553307031114,319.2710281435983,-225.12857190784683,194.47974195339282,thank_you
501,497,722,8.690739632824066,-8.512047512561029,4.6039053232311,274.5041063553267,177.61317554261132,-151.28278514298478,thank_you
763,745,492,9.536685303603786,6.331512267185591,-4.027079728265168,437.6992661940918,-461.5669025675302,384.0856965764616,bye
526,473,337,4.794998947809713,7.370129413707822,0.8580426295523846,-358.3974243870116,68.2278156666614,166.61545681953487,ok
734,404,944,-4.955998987661743,2.788492803531419,-1.332887595642374,-124.27274293756398,-101.57483126053637,198.83735579421943,thank_you
378,547,922,-4.78965109128062,-1.0498206862732022,-4.467554458125978,-217.8578712782899,477.8596338119685,396.3898880860262,bye
200,960,645,2.915807155901458,3.2434602464714537,9.493798409049266,360.870123554672,7.5602491105260015,-51.58379203094478,ok
618,131,841,-7.648007668025965,4.133673914102472,-4.82496709596361,-11.645379718799632,52.267752450267835,156.90410595975652,bye
249,323,65,8.966187608607331,7.86059916171936,-3.8141387255394,-473.1520655843336,212.3626634428192,244.68902163778034,no
948,857,791,-5.503742009796309,9.11723360749476,-6.768249964838635,207.9644068383966,-15.461518874353317,-46.05994186921845,bye
408,131,421,9.992712508508877,0.2864186478182269,6.459612506285811,-111.30190217339742,-275.4313807232486,-416.5478842622066,no
600,1008,539,-0.08532409395079199,5.9698906705312496,1.7317880110897867,31.146763371012298,37.277846548448,271.4397690943607,thank_you
124,520,923,5.428599779858727,9.290191119833096,2.2607851294477133,393.78742700999805,444.26887089072045,-452.18364725663815,thank_you
112,29,628,-9.956318109888855,-6.97513323706068,6.411228235981955,-243.2622253671883,-90.08901183152818,217.91440172273826,bye
980,626,492,7.774928095032838,-9.634640367806465,-3.1416068274024127,-259.73532438782286,179.640954999673,410.87520852455305,ok
136,300,881,-4.599959104388391,7.379275456965878,-6.127331492395724,-236.80749581991068,478.0341888856849,-153.03100162998152,bye
758,3,998,3.358734890961305,-6.094533335056784,-6.03189272012192,-161.89200874029729,329.92231298349054,-397.9382148621732,bye
495,324,961,6.127105615871791,-9.150424667363982,4.6523964292451865,-392.64602535390037,159.0341330833237,-267.1360102091589,thank_you
677,508,316,-6.717045188819959,-6.798077246851109,2.2823030892489484,197.21966080858942,235.99648833051435,62.28156412539238,thank_you
149,236,941,-1.14981037341542,-2.3177017751246147,-5.873222428358222,-292.60128217086344,436.4832480170751,442.65974310608635,bye
874,534,836,-0.1232811869615329,-5.6146859681483985,-7.098692107191528,426.14574727058573,459.75210440035664,12.28272988611684,thank_you
342,15,625,-3.7576106932159092,-3.8949274179911386,-7.586253896760544,-284.3136860901293,468.9681303219958,-387.2627118033038,no
944,533,74,-0.3648834054203718,9.505881028600925,2.5559729540607545,-244.3579706912249,125.64162820252204,127.78317371633796,bye
579,996,713,-3.6490868468932387,4.088110883251501,-9.997627101783,-202.97977118918362,-115.28835013476345,232.84493678794138,thank_you
732,583,938,-2.7850450988958153,4.2438345650640805,-9.633613147929125,268.53809701141597,-366.84687104370005,-106.71633000720902,bye
782,815,58,3.386623574054779,-8.106292505441544,-2.2089372874780944,-72.39351255797021,-114.45199865959711,221.51406434541457,thank_you
320,445,385,2.6518653660999405,4.641967396453834,3.826997285523248,319.33462403061867,442.955454735619,-175.17718486081026,no
821,992,14,-5.3546854840494955,4.786886659106099,3.9007875299480776,284.8537123557885,389.79708059238965,289.0901515964134,no
925,502,230,7.949657695908492,3.194900368132645,-1.3976345278461881,429.4904227674665,23.659662062878624,-158.927840429931,bye
860,955,616,7.255770913427813,-5.431274080042499,3.821472132091392,256.6041551040547,37.00728659392405,-243.89290839937405,no
531,229,676,0.18166613379903218,-1.5392764183563017,0.4219235916025088,-448.0888303309372,-191.07965040503052,379.18140589157497,no
288,106,198,-1.3349851460849926,6.925529093392505,9.538628335946306,337.2812736990584,-45.49210992951856,48.4734211753962,thank_you
488,719,915,-2.462880340317824,3.4040325868125265,-6.750795723263339,438.07259670541123,214.44849393939512,-214.84371125831524,bye
491,388,353,4.145358373328783,4.655376699998046,2.013345354112113,493.6891925496691,-97.56927435220808,435.0868896470673,thank_you
611,719,34,3.43332114418941,1.747488002516178,-0.17522448097992793,-374.73240586753485,-312.01612792396617,190.8511754660492,thank_you
251,262,161,-6.076387861240427,-1.008268017764431,-6.110673106846112,113.27326932653455,40.85957882507773,-279.2996003444328,ok
981,562,756,3.429160626007226,5.181040201342164,4.9998086428340685,-300.54133411584064,-274.663088545672,114.64235459278063,no
76,64,981,-4.951376117959201,-8.641483712673901,-4.489839601360095,-237.49035908740103,474.28755601260013,370.3588312890246,thank_you
646,264,798,-9.628833269529489,3.4632146556052827,-2.365803618129167,245.58433822285792,-109.66008598804586,196.1531425400575,thank_you
391,337,894,3.98417355074754,9.944090157013584,-2.5033886082493995,477.6677176990604,409.66497160911615,-255.24084923986956,thank_you
411,300,470,2.895872049214992,5.603838589360633,-5.115910536241024,94.85550146302296,-274.4460033963757,148.84832869451486,no
172,377,530,-1.7838147525131713,-4.188729768450894,-1.3858933660318957,350.58446982224734,-310.7909946942235,119.15937272020085,no
874,174,963,0.5137211183901229,-4.443610105892388,-0.5330823814476346,-491.1161961711721,116.90112903973738,320.8436635786886,no
200,962,791,8.943383834115192,3.344372211869178,4.88443345618615,-463.36836015038074,279.3790783033206,-321.8674030033002,bye
216,151,851,1.904003618108753,7.917085140170606,5.301371487540742,96.72433732586342,66.76456385237577,199.63466700135984,thank_you
375,475,422,3.1576787067306284,1.558994816956858,-6.828880634166758,-111.01689839956089,-270.20431639474066,-472.62930786629795,no
719,265,347,-8.721773581017178,0.5480457434011665,1.8554459865506416,389.7578149731539,-462.10563711600395,196.1753006357676,thank_you
585,328,693,-6.680110786497496,-6.792317323126573,7.923955965587911,-198.01808691426623,118.28882119100513,460.43730393855697,bye
10,972,934,-3.9809544717682366,4.309139107196332,-7.824267822308784,-67.94897249595255,-368.9627746344517,-325.61173375038254,ok
798,815,912,0.7875863605628624,4.045972392757815,-0.5417191093172296,27.909197831568235,-156.8236129676688,-188.70022718099113,bye
767,162,146,5.531817919666423,9.339027846676952,5.007062448166854,-226.96116711375248,175.78475367123144,82.87157202855121,no
11,437,373,-3.5751824442282594,-3.9961563138867113,2.229826687646865,408.4948674532943,-401.97655941706813,232.3950458572557,no
891,342,687,-2.8723513904245213,5.128909527350636,-7.988286868067522,-35.46641534190286,-372.7485202160442,-155.62860959546566,bye
990,366,674,-4.876982296525023,-1.318694776047419,-2.0678774929805517,-75.84439088098304,-438.33379269259586,164.25897714013763,thank_you
589,464,415,-4.907813414093882,1.169455832322699,0.14478996433727964,349.7530489343326,496.07912890682655,399.27879253633307,no
434,749,686,8.977276917895932,6.329077112011163,9.916912034325456,-188.02159835210153,-112.92323139841875,226.5587872242619,no
683,198,493,2.709143592377801,-5.560099099620488,-6.427841813526944,317.465344510961,405.79516773463456,211.02271760224414,bye
607,499,558,-6.881975129201063,-3.142625209451701,9.64847534320225,-377.72714727865053,-206.41436157571792,-118.02934158338405,thank_you
817,15,255,4.444971561685199,5.46617340395194,-2.477004315411122,-317.21146663510035,253.20256514049572,411.4293088382009,bye
372,820,959,4.44042286720058,1.4091583057572183,-5.993590278523573,450.8416661717347,-280.93338368762113,-222.6770580389222,bye
272,295,685,3.3294039210741015,-8.151541661898596,-1.7178183575200805,342.44749080770794,-1.6752903517497089,-294.7196433802993,thank_you
930,867,102,-7.305591098186728,-1.3962826644297408,2.279902480696343,-112.10109854359371,324.6157392957796,-135.77606627349616,thank_you
896,510,120,-1.8401703306082613,1.732666259460327,-5.730052121780083,138.4564487170294,316.3343988950826,150.15622073849397,ok
924,787,418,-7.864873390111738,8.190346328901054,-4.1712183339574445,442.97018943095577,294.2807173626745,361.67798619450673,bye
690,983,349,6.332410081842731,-6.230239001227227,7.090930034705796,-288.14109713591574,323.73441303855293,-367.9212176526829,thank_you
575,238,656,3.103442863558385,6.1190593675496565,9.980189233377356,-440.98952977699935,-288.5277186941207,313.80217726016303,no
508,580,41,0.14407873535636817,-7.387510338468173,-3.6365461700314716,37.46806450530528,-17.78372743961353,312.8233946689951,ok
131,300,366,-3.139690469988068,-5.155286798483855,-7.0228639210011945,-357.4031213364067,-15.128525402841376,86.91935659008607,bye
854,5,28,-6.315010510111332,-5.133122330197539,5.8634163998808315,-312.6809072886249,390.5024873479125,260.64793957802567,thank_you
923,219,965,-7.8710482233378425,7.549583918176651,2.009113745502905,391.5391897315794,-203.10817060057116,-318.11930184841265,ok
783,1018,891,9.384812150737993,-6.019646159700258,-7.991977132487977,-492.5965413551087,431.4958933890482,-330.41399917928663,ok
318,765,784,-6.007027160879539,5.739214539708183,8.93542962872042,316.82002646386854,-49.20426369390094,362.80003412872713,no
843,452,976,-8.802507465572287,-0.7638693196076023,-8.43900943200216,16.950776335607543,169.7870031774188,-1.8515627654330729,ok
948,432,13,9.233335443649928,9.981815355946214,2.5071280326728225,59.29438764530039,-231.11688772066566,-254.0627857471509,bye
852,806,919,0.9790348271565428,6.781829973042107,-1.5212548821283711,171.7679604563624,-89.70189316869272,188.73035760632376,thank_you
620,869,952,5.933134699822858,4.794062688956359,1.1324783647987164,-68.55500769198966,209.80093206914046,391.87516693422094,ok
784,385,817,-9.124683056033629,7.4145261330439105,-5.735716086797112,-384.38811180758523,12.74714185100936,132.32264594424976,ok
167,618,824,1.3389171495930938,2.680607852100671,3.762207985013033,-397.1797761951762,430.70801168833384,-152.6549570599828,bye
396,294,484,-2.0358007176400967,6.8730451305699525,9.194393782666793,254.3621991839425,237.1249658974774,-16.762234706985453,no
179,117,188,5.439288686997671,-4.777463052770883,-0.8314825191016872,-278.96485673271513,64.40292551059986,252.26946094533957,no
57,404,871,-9.231487087218827,-8.045935777978501,0.45916555136454384,-471.8983163823558,386.6697566522082,-432.4987711276125,thank_you
479,679,294,-1.9661886287677142,2.3186401417333755,-5.203766588622374,479.61388909894106,165.55638878874436,-282.8354840435577,bye
932,996,182,5.98146838972392,-1.3061921467282804,7.837359675021624,480.39151936069334,147.32047342043234,-37.416813350552786,no
1009,762,863,0.4539452927673988,-1.4711840941513614,9.423488102799165,-121.85866265622013,-253.62866685237273,104.24096409709875,thank_you
590,593,547,1.0007748199720794,0.5349570486009227,5.725937701721087,-474.4761554428868,-105.14303447178906,-160.83440895767552,thank_you
459,565,881,-8.056706360680689,-2.7723477686891496,0.85547004319608,227.2646585927497,183.30365260402152,-201.60907813011931,no
60,751,36,-7.353388877598173,2.5211906288565817,9.135936490172615,331.0120604856693,391.7917114831579,-458.6158043002787,bye
368,877,1007,3.539992107315717,-9.388632653047402,-6.922998892654464,-374.98630988419023,-184.45252635508479,-467.39822794855246,ok
120,11,13,3.500932445798398,9.397826837635264,-0.4301828020956311,-364.5413850907637,-284.5143780570153,-221.3051456971744,no
718,208,922,9.582067885045468,8.494179840911407,0.7521141345282611,322.22399969679066,93.69597881585582,30.506100089542997,ok
545,164,634,4.239059761311008,8.705403251638671,-0.16167160495246513,421.9073887152348,-432.80290189728686,56.37149644541148,ok
581,877,594,-0.13513008133105409,-2.699930088325633,6.048365743574063,290.7548366741496,214.54170145000512,-5.97250713313116,bye
16,293,158,7.146556470671058,0.6378191531819954,3.408057820327281,-299.2550508304704,203.13854328748084,-90.1193159971657,bye
495,910,493,-7.910540283681275,9.082612061151504,-7.466830681634766,-88.47878056577906,-145.0339690138449,-247.70841073867922,thank_you
496,518,328,-1.0140835820749103,8.04692112855173,-3.070973853138792,100.84242586591404,392.6776533449017,-99.30556840721783,bye
504,77,613,-4.257817781448605,5.8048895180229465,-3.2184630322622727,-339.7065261791713,2.181141539127509,-361.2400346144865,thank_you
531,433,848,-7.907243861447489,-1.8533682030481522,1.312643855858573,-289.3975073674917,145.76495069293685,-384.7407709739632,no
968,576,82,5.270041694407325,1.2867844636434693,-4.170831646842061,-217.113927931445,-290.42151806166214,-200.05674318620856,ok
314,613,555,0.2158406099776773,5.858249484332953,-7.654564608921788,9.513270290836488,-82.65966484,495.34879642721967,bye
68,962,579,1.135374397949814,-4.5397600891993655,3.0736533131427084,10.804887177547585,362.4175402697681,-173.50305248360155,no
726,868,559,-1.7748962417934209,2.5289873645622265,7.020738770700451,314.29451934755264,-287.0604523676572,436.4563903551052,thank_you
160,811,568,-0.7932553679452958,6.558686497037137,8.63216190931848,253.01020068762557,-109.4256224075312,-107.73785423230595,bye
613,798,586,-7.679652257539937,4.149095834658027,9.451568353189515,413.735675109942,-181.92345557187008,-60.990008800390626,ok
887,682,21,3.458356485739529,-0.4103873761799868,5.62233692418028,332.9017228245964,-348.8898151352199,297.0628832022295,no
717,76,131,-1.3510528078957247,1.6921671911031666,-7.205951434161957,-246.12245169434533,-210.28208187246446,-406.36167255254327,bye
144,47,464,6.335351462591664,9.773510862915881,7.062236484734491,-168.7032306960001,-267.22771642478324,-317.6866764063605,bye
568,766,455,-6.0742559971384775,2.0397558929442017,-2.0007985323505206,0.4232436325337403,423.5936304613274,473.8402649752147,no
594,81,301,-5.898898131623285,5.712355080372875,4.5982262758472725,-485.7288654363554,241.07880454279598,5.917339960694676,thank_you
992,894,954,2.9151914306137545,4.532095287553252,0.6253600992167172,403.90200628372145,-183.89841821717567,-455.6903177913697,thank_you
384,720,929,6.920068467947939,4.029812310587264,6.572122672975674,-455.65578743766076,263.33905324270984,-452.61926694394947,bye
268,208,266,-0.5560432276364935,4.327381102280871,-1.4898853432062271,-177.5587291833637,-477.8600469661286,407.24068377739275,thank_you
1005,444,798,4.539077374662,-0.9118049743707228,-8.764123785199585,69.17479119640666,26.524710771139894,373.3650895587176,thank_you
922,970,394,9.986598429861711,-0.5167965096374942,1.1364742176494165,17.84138860686585,-249.6654362653269,-41.60089305489987,no
453,595,119,9.805312794578562,-0.6427452527843531,-6.574188906646537,154.4598928258747,-385.6779281914858,-336.77791405540125,thank_you
698,521,245,4.886736856434002,-9.334907855747838,9.310352647058451,27.520175294209025,383.75852833848853,330.28460636247974,thank_you
517,28,567,4.791729793564976,-5.17869339335353,0.5392613165098314,-270.9985742969656,-300.6594657374274,-175.3998927203495,no
864,303,37,-5.047622256021887,-6.908719867002344,1.07117587674521,-298.92181220612815,322.39109294628236,-80.94160133690463,bye
349,993,244,6.670792630875475,7.728900227945147,8.145314256296356,407.24706907549853,-86.77732250822879,182.47637904931798,bye
109,464,20,-1.8979574590575883,-4.50061267094102,2.4917049030234963,-236.03326326440742,-485.70922995929965,-146.60164659234556,no
482,501,109,9.239878197336452,-7.231147310689192,-3.9454124562058563,-219.02276612048655,232.53282930102523,128.669926698293,ok
406,445,605,-8.37144622586129,-7.604661361782301,-4.078107661732577,-87.04710389965544,96.3597582193679,385.2827104425843,no
649,627,393,-1.2831926225454797,3.999796691043173,0.031572998129123064,-360.56167285002607,-155.82811683218068,297.3732687744774,ok
50,489,409,1.1168097536699726,-9.878333781700814,7.332164578583178,7.272844423240372,-218.4540660737366,-118.38892613283957,thank_you
402,780,986,-1.8968758582767027,-0.5739119648698363,5.894586814725571,165.03176170213146,-426.3087476295653,-212.06344529626517,bye
562,427,647,-5.788416189901133,-7.622577888036075,9.254811721136896,286.00049207736686,441.42559483527225,-214.48955126044098,ok
475,558,742,1.8597697756501965,6.993267552718102,-8.562277542955927,211.45424186422918,-6.0151153079143,-151.40884962341693,ok
86,358,7,5.1183582925027515,9.169007129049163,-4.633478620713227,-352.3640359197363,-414.475482423892,-6.483013275227734,thank_you
67,959,443,2.8967719204039284,9.175092324298074,-8.39584584372548,-43.93285502907605,368.6797177444705,-83.40251930605689,bye
595,90,327,-5.31102302383921,-1.1607178210646136,5.021583878048725,-461.41379919182157,-221.16682718218328,-366.99597901234216,thank_you
978,1013,886,4.63215888737048,2.8902964886959293,-7.183326216992327,-482.2020032790507,-296.3972842653452,-336.5441416660917,bye
41,52,289,-4.862043879108735,1.9940827302148918,-8.002273640047866,-59.869581726199385,-219.06256165778126,-157.0703906018166,bye
730,729,762,-6.4959527415192,-2.9992219722809406,1.2334441419911517,-247.03950554237096,64.57145860711137,62.06410005885732,thank_you
56,859,510,3.813360308774442,-1.1187101715893775,-1.7703057576168302,183.3607948733628,-425.94351550296346,92.66395013349472,ok
737,588,911,6.855744922278582,-8.713526055334286,4.302026775249342,224.24078681341257,-18.24309087732354,-13.792935103369985,no
195,203,360,-0.36921104606851074,5.9139806534297445,-0.25969216599454015,395.4037245582557,395.74344512431264,238.77588120751454,bye
759,555,908,0.6278358627687552,-5.183929756907619,-1.4933080811909445,260.6825135390387,-311.82840415387614,237.24878875673664,bye
677,155,598,-3.9450485905753503,-0.7894533772724763,-1.4899910250605828,-451.7558768634583,-168.81122784775613,-72.37252831261145,no
61,1,715,-0.107639697799355,-0.3875853276671215,7.437527607977092,-128.37698964223233,-103.87803494834725,-375.55918923905574,no
262,356,218,-7.360340039751856,1.214234783026365,-2.0954869855506715,-226.9766482478779,86.22071152724516,30.174769767123166,thank_you
111,824,1022,9.1166165936598,6.357532757761799,-3.3320574446073303,-113.86755017283878,419.2542465263115,-118.5309360061674,bye
764,568,405,6.0072130731319255,3.8376209236749936,-3.2292984595454133,-339.92434103129847,-105.4607917575745,-362.0770102362967,thank_you
710,801,991,3.3594612164436946,3.26126098258384,-6.067984063702195,-402.29589630940654,-430.8471593222364,481.8172099648392,no
177,982,1016,0.7638874336880601,0.5349099160987958,7.213777011479788,20.984542508400637,-152.0491385690076,-130.24461071989776,thank_you
947,57,1020,5.843382724559289,-8.080884901068202,-7.067383699448369,220.3813108663943,-309.9145874001552,125.79783962123088,bye
25,253,752,-0.10485520828391337,-1.959830566982772,8.172214755992108,201.91090193194282,151.77447881910336,-9.871138663403372,ok
409,179,922,-4.00052183690935,9.146337025811043,-4.330645561779876,-49.05567782377284,-470.7378908326678,-357.1717207832339,ok
757,492,831,-6.79251529666656,9.910961505765052,7.988536443476939,22.278986288946044,-208.07002892692662,-444.45637662742945,bye
530,668,769,2.951711776036145,4.609962922018365,5.816413136291542,16.328722508641363,45.173507232619954,125.76941508195898,thank_you
776,34,620,8.588514900530281,-5.449700738507099,1.6397504190071732,191.57037776805623,-222.66579395044573,-252.9781296521144,no
316,74,767,-6.927628929912977,-7.9621870799320815,3.389400078371983,-452.0748240439759,50.995283345254165,-256.34600038628497,no
531,943,992,-6.399639098983865,-1.7047128190760148,-3.483118183501446,209.89610887122387,-385.2876778128168,456.97618971031056,ok
105,288,793,-1.3278793318092994,7.1314380471867125,1.484572286553247,82.20090075728751,442.8054879896225,-38.22669568870862,thank_you
748,370,219,6.137986958393778,4.437284797900009,-4.151941985466059,-301.8912853284258,-209.0931926701133,-470.5739334993108,no
817,586,594,-4.121545420569907,7.677844750822096,-1.9545437221907669,-450.9411462537355,423.00083938988337,-160.1572848501932,no
463,328,106,-4.921741506599437,2.315526293953045,5.293251104584895,-391.4722094421116,-174.16456049585463,84.49154225222662,bye
245,589,580,2.3993258292566786,-7.393432708206154,-5.121348723795675,24.691341419269634,281.8401911729877,-171.4325814828792,thank_you
80,766,608,0.7122956374866369,-7.704080660036718,6.776920316750754,258.40853009128284,-253.812642538747,-473.1480459658577,thank_you
661,776,723,-8.795592711095274,-9.039953947397414,-2.4823429267000696,-165.34271287549882,169.76890238960118,-55.68873453326461,no
908,998,285,-8.37020045381447,1.3415994114706198,0.6433992171236191,-120.87608929477835,-176.28378617723286,-394.09366382522217,thank_you
395,303,748,2.8602596036953223,-5.142275267504219,8.839209751257467,434.14641504611245,9.159129209658772,119.16002466270436,thank_you
521,578,7,-0.6975280170444087,4.687672827099011,3.625112603737497,-286.986915967424,173.8141457636807,119.58710022268804,thank_you
832,220,805,9.419543831782939,3.724998717150145,2.912082256892548,-396.25057542464833,88.8825052029606,-462.24086040159926,bye
735,978,188,3.570628214601294,-3.6377851518336612,4.232154552100582,-156.58988619998206,76.28059328369432,-209.33373840062274,no
925,163,80,-9.79852676013537,-6.463966670718713,8.362226775211226,245.92211949227374,-434.3191643423827,-86.31373626099617,ok
263,479,107,-0.37962440399076414,-7.951993004079975,-5.029725815569783,126.07729105613191,-250.92316782840817,50.26409785917792,thank_you
660,454,320,-1.711041299290411,4.746305476261941,2.2648241159867677,-84.20456063043082,71.83928985654165,-203.9365702918049,no
789,374,578,-7.865722800124626,-0.9911800914813362,-1.9921229123269555,464.75253283183054,-481.68279278427497,-212.25348744860185,ok
273,219,685,8.464176717443802,-3.5294017164372216,-9.762894135795122,234.9964382945733,-249.35574488402034,483.01515625025934,bye
705,683,345,6.100225981634473,7.133060316126244,-7.4939820718778165,-438.13857561670625,-270.8147605688033,-458.1372042791001,no
943,253,862,-5.398281831599963,1.8722643313876812,-3.500162094728232,244.63144385404837,-250.14388983916558,489.0454140911519,bye
171,721,327,-4.880384823140056,0.3600467279316888,1.2999994236383134,-475.96144409414165,35.60949956665377,-452.24805892160344,no
264,187,554,-9.35963893361098,4.867583299512315,7.629495533925432,150.3233231174055,81.96035401919244,-211.65857220531416,bye
962,190,698,-4.065650968419181,6.311662804705765,5.822282364028791,-289.5171637073413,408.99799437281126,-6.3091450306499155,no
821,388,301,1.6924401782670717,3.7214631084543903,1.0666734484554077,196.44220903755775,-113.9689509737808,-356.7016569856748,bye
25,214,199,-1.5831322322666352,-1.1998736280129467,-8.522591641850648,-190.22043335220383,426.57891714312586,-365.1536374812762,ok
468,374,892,9.385109274393617,-2.414024146556251,-4.281874192100428,373.0063079555649,151.95434498417023,-243.68728673905417,no
861,85,418,-8.878396614726583,5.433298765454044,-2.6658270421551222,-163.08616340853956,412.6603959005557,473.5071835735695,ok
475,473,38,1.828603177980213,0.3581432128057216,2.434343704076852,119.69585540429694,333.47210168004835,-119.88314112543583,thank_you
355,617,731,7.166188810140962,4.087721570347526,-8.701527540403177,-214.07244034601172,187.5824434076875,65.99483826919186,ok
25,843,306,-0.3851817518055469,7.807975781611038,0.6038710900094664,417.22154514217823,-143.89410048104054,204.29140238164632,no
33,807,3,-9.940745588792064,8.317812694734062,8.029291522894145,280.9959810281723,-258.8895523147815,242.2218355242104,ok
263,530,632,-5.143970003474497,-4.445687215188547,4.108653913948057,-256.69712365539687,-277.6085644879678,188.04096634535483,no
137,46,847,-3.5246204866406767,-6.242200994549718,5.941536131255127,448.7967125586596,452.17383745628126,-163.07180680827514,bye
815,64,76,9.319889891149248,-4.774252793263242,3.6335129671814688,-142.84241042377175,458.5738431293581,-388.27217264393755,thank_you
694,962,467,8.235465636773988,5.027435410710055,-5.868217756548155,151.8649476671875,224.8313735243089,-218.2835246667891,ok
874,474,178,8.983410102152607,-2.598839279076797,-7.7903235986796275,242.8532311143964,383.79598407647734,-289.7047732304934,thank_you
753,145,644,6.515169152339368,-6.532214383173405,6.589813460098178,-477.0978385350877,418.99616307906047,-363.72269513068323,ok
565,945,822,-2.9670453177219125,-8.032290149860614,3.9100887203105668,458.9673461572462,11.556196519312152,-475.5032682483813,no
461,797,740,8.117528441924012,-3.453736223406243,1.501231176327364,-155.55869391263508,129.05969062517215,435.72584905841416,ok
167,381,275,9.633690118740976,-7.277271192989774,-6.214342700635081,-310.2211065687758,-81.24550207978541,421.0343865453382,thank_you
630,65,151,-2.998573754500942,-6.872527749333861,2.0668993062350687,350.70779172849814,-81.50923571473692,-449.5829943698307,ok
654,516,163,-4.7888806802710215,3.677679468925403,-9.373564295556804,202.8992828234144,-461.5710813553854,-326.91542717959817,thank_you
80,92,289,0.9383258556444254,-9.605358086631895,-7.623217312120811,-413.2567273766474,-66.17853951519447,-360.49952853720634,thank_you
756,864,377,-6.2569561480214,-7.64893476749124,-3.76219700391151,-382.95541862323046,173.48981151318333,-218.77706557848262,no
913,425,620,-9.347515571872396,6.88730982426193,-1.1252344517767128,215.19187065364895,-78.01783389342887,-295.93112952125887,bye
863,467,637,8.916623422317393,6.8982817003650645,-7.588710083559993,-425.216744040916,372.4096768769565,445.853537397855,bye
869,93,751,8.514812648828386,-3.415130424728461,-7.601196322849284,417.1754351240651,-167.43704759298186,-415.8295634397962,ok
406,617,309,-6.746922924757579,-8.24093983262542,4.517873211672709,241.5401369476332,-367.31795343915053,-288.3291729954968,thank_you
573,132,929,-1.8451950614056116,4.099406676144117,1.3943881306697126,-164.50779403301118,311.55869072905944,-419.27669541708553,no
45,433,978,6.620726265453712,-2.7973662445225127,0.6748396155532994,-137.06122077466176,173.94791832859198,480.38534864443636,bye
598,340,912,3.2200059764170597,-9.090707455901484,-0.9513100976490012,6.496096204101434,-258.1805176794182,418.413509097005,no
610,313,388,-2.104249816585721,-6.843460374004029,9.530862126891279,-139.03058635145982,36.45125604223301,216.63158976541092,no
806,590,856,4.88341994365638,-7.2557037607195145,-9.003994342112465,283.4685514383158,-98.14766140620759,-74.02696778008664,thank_you
910,211,657,7.94094776420382,1.7823268765532436,-6.387456476768452,474.7369441016157,438.85977643565775,-309.8218644760075,ok
52,519,763,8.523166610517361,7.962351672071225,2.9501551480247468,84.52151543819309,107.33209092062896,-278.5102749798576,thank_you
983,1008,182,-2.423007761556219,5.861440666469148,-7.272686922975174,-53.96267233247107,-341.6107388130084,-56.95999144398854,bye
703,158,820,-6.528786398543622,0.9303209003446007,1.7876187601834754,-277.22585973178286,2.148452636985155,268.22267133648154,bye
958,267,305,8.256777163879502,-1.5568967014503983,1.3552245096215998,153.4334192478002,362.55683252385074,-235.2705040010411,no
475,660,71,-8.148891082779436,2.3735341813772983,9.420103672792838,185.57686181539714,171.49667003246157,-189.20808746535334,thank_you
591,861,218,4.433767824563272,-1.1237451803983838,7.667729740980448,185.19060701436376,342.4520760986562,99.94429140447062,thank_you
15,957,718,-7.190053702783967,-5.078017548473682,8.91106687534905,-473.01496413150767,-249.6006861343597,-262.2706377217464,no
359,602,172,-2.2122629066461563,3.5839491070455924,-7.727952610520408,399.1221006604709,388.35137704754186,84.2186212928035,ok
486,747,652,-1.7688850690994524,7.464878914826421,7.362968745083776,-161.89343657082333,255.6113318241721,-112.86910672771546,no
837,473,271,-6.824841697758332,-2.54259338638279,-7.41818676543388,244.16576248160902,228.91375543807862,-465.631794098652,no
705,800,725,8.45362868013224,6.830769353826739,2.6586435708797787,259.8069071003198,-153.45893023647562,-97.29871376803612,bye
501,409,467,-9.946636639814274,-1.3783590703301911,4.4015632135600455,150.5549788122396,387.6580637605282,419.5252795191449,thank_you
140,473,268,7.876170864332611,-1.9732811380114796,-6.7829300370142835,-105.13347685570784,137.9793773932165,-206.8881208665394,bye
619,355,19,7.676586469509708,-9.433512849059447,2.6531875185907943,108.38421681652551,351.8394768628025,-177.167610563531,no
814,679,577,-3.6607269260399677,3.9055780273482057,-8.95079014176012,-459.8013087421234,-139.0285440137282,-434.05911194071314,thank_you
1018,192,994,4.085685397585511,6.150050502276457,-4.134678285143396,261.8957921879063,-354.3479089356435,115.04744856929426,no
776,698,814,-4.94382177403369,3.2711383911712204,8.423169878682334,-400.41135167166107,-167.66281977967765,349.2423642983389,no
446,270,502,5.175471245078768,-6.9727809721611305,-6.565376741962616,-103.2490742003983,-44.735652624817476,-147.07710690689834,ok
289,113,146,1.2223948357548675,-7.9341306489471375,-8.69460015099345,-396.3812123350334,33.40737514549244,-259.75444248001156,bye
208,896,428,-3.995490915046833,1.45717503237079,-1.1264360068908115,337.07444581909454,10.80921571153749,456.61185416385865,bye
474,522,164,-1.9953049272469077,-1.9696749163079623,7.012364170545432,50.302393435959175,46.05459243656435,245.07261459148845,no
412,54,889,3.7977746447680705,-1.4180443302882075,-8.4665523606342,190.9551201692724,341.70576522294743,67.16355928326459,ok
676,769,309,8.121948992875659,9.356004934860152,-2.8892926953918296,182.58216984261298,-329.8987538118301,-194.46883365511593,no
426,64,517,-7.385469668654507,4.478453423861309,7.995496691186524,341.6062316585045,-183.94870483112913,-279.20198202359916,no
853,990,13,1.4272793933831434,-1.7642452158448663,-7.636889001110914,-367.4305966548653,388.6084904354515,215.74403900046718,no
370,683,131,-4.925416010857651,-9.618014403165702,-3.7866298817610673,159.72814040488413,60.458204558330294,21.788817137344154,ok
831,271,853,6.0274449975091855,-9.318086042934596,5.5684122307140775,75.13405440365739,83.38987036957212,20.59981680298108,thank_you
663,501,754,-8.595253882610379,3.6960739129171234,0.8642197427760863,-469.1028774286846,-21.93745538604776,-426.2901813277562,ok
966,661,438,3.7791158034233963,6.754775190355279,6.646662812671661,-298.5770911771974,48.97463498613911,12.194476759605891,no
289,361,742,-6.5010797261794036,4.154052590993675,-7.7680921390240325,-232.4284586217792,-301.9202694398988,322.7440310394936,thank_you
431,145,739,1.9277083680645841,-1.882244947905491,8.411083427594455,-427.44362457083383,46.86689941812824,446.79927779575905,no
267,942,673,6.713851743853841,-9.37728524138861,8.698235890304176,-145.2801941011985,497.1731279111168,-393.31760251826483,ok
150,208,794,5.101613242433592,9.348032604704596,-6.893739597065873,-472.7974912845243,66.04757292418424,131.16521069907083,ok
718,285,262,5.058857753672745,9.726721243161734,-9.322490711865,53.18349225772954,-455.5975343939697,68.34725079824693,thank_you
254,9,642,0.35690624373810387,0.9872910288853731,9.796827639111378,-288.49903942021274,296.4356443506597,390.3124909481418,ok
352,738,942,7.814911836994426,-8.586580706097887,-0.3549681539515106,-212.99689449080137,-103.52457127661239,251.24403018487146,no
376,185,224,1.7621039648399588,0.8194501182893372,1.4415080807086262,410.47162617128413,-346.3238514984381,465.2618691653132,thank_you
652,573,257,8.350359370991413,7.846769404416168,2.318094673331526,2.816849123525401,362.51980622669134,460.0325375819963,bye
854,596,233,0.9304491566483524,3.599710202564271,5.793369255610054,-230.98606875558414,-302.0267444650324,-274.3149066547792,no
357,463,335,0.11931126040005857,4.399784620654486,6.239759380918358,98.46175824806619,420.7673898585332,225.35087190042213,bye
607,133,408,-5.5529396157937105,-8.300603251355014,-6.121495513604522,-298.3285651325044,-58.20350955739451,30.523091364894412,thank_you
940,834,827,0.8957330806040993,-7.869767259363972,-5.2672651873294685,-425.60431423581514,242.79083474970002,-285.39800478469454,thank_you
369,808,974,-7.188303375022061,-7.453024472482294,7.536660578927442,-479.0936455997313,46.99585033852054,-305.1309177825992,no
226,170,23,7.39380402519091,8.087536673219851,6.390352095011728,451.52904537625625,-243.37319608477213,-418.9156587337135,ok
704,212,270,3.5178377741658693,0.5169927252762658,2.3523876310791074,224.61082414311625,171.09017449591875,295.545276418689,no
302,972,94,9.872708969858838,5.831501927859824,9.893983182496996,299.94814829238237,457.91255089014794,-175.4952193799905,ok
825,529,141,-8.158051444189539,-7.694174802327995,4.703678871026472,480.9177281788319,269.6369667914124,356.9688353289665,ok
1004,825,693,-5.186545003094263,8.5528541101719,-5.683264637395022,431.62870341343955,104.01799657517813,108.31536602321455,no
388,501,717,7.543172085322784,6.422841829944204,6.932881286653565,236.91319863751596,490.62810826585667,173.63335483846072,thank_you
376,571,901,-2.094918004621647,-5.504717104492878,-1.7053472725971996,193.98706981931934,-234.67333265731526,-208.32625038980336,no
972,599,973,-0.6739402003620487,7.483644665879069,-9.276946789174216,-163.15000306462338,-437.6585120905526,-42.70572060431641,bye
117,26,80,7.213037747752338,-4.731144812063814,-3.571574443766588,-395.98274820489786,-467.8691338840689,-87.68242191687511,thank_you
4,1013,273,0.4364644989990456,-5.893202413218869,5.271024681187706,73.722548367576,210.68787955879827,-264.3113360753988,ok
443,67,275,-6.130483011712638,-4.715121263755753,9.204124143729466,76.25329508859227,330.2323647341706,332.5121685267926,thank_you
351,789,882,7.840602308195621,8.199101265452185,-4.477271673936123,452.23728541574405,135.10053748452663,122.08450580662111,no
754,407,957,-9.37876687153933,8.311839710297392,-5.069673511805699,-57.429193338290645,405.0265974431984,-462.56802254692985,thank_you
532,551,464,7.907925352868865,-3.4200845062406238,1.272331711966002,190.8076243060683,197.97604733992046,319.91701937868845,ok
663,108,207,-8.989595466553306,4.1086837018910245,6.233677993248936,74.97062739672174,-129.04535359097946,-393.96224397140855,ok
639,73,295,3.316987292002562,3.514905103283665,4.930513643218932,-323.2397708989507,-318.74170837011843,-96.30356646744076,thank_you
123,577,38,-8.566412406493306,6.1312526426080645,1.1991780512563306,92.06430775491674,424.6474785591563,71.25690163037791,bye
657,679,947,4.12425971930131,-4.069809997157378,2.6277936322895705,40.116709362820075,-396.4028500025205,-492.348754338782,ok
276,261,287,-9.320573573340983,0.20277083820803732,-5.15802085347312,-6.094006090644484,42.988403746405424,152.90810544293606,bye
821,367,123,6.849154554215751,3.3534790201657376,-1.3485146999329878,13.422933648474782,-185.9920747264884,159.70293956025705,ok
393,785,875,-0.681120981400305,-9.474863623801879,-4.8926874695940015,-336.0120280411295,-228.58499248032751,152.5263171326468,thank_you
663,848,968,-8.130921746622441,-2.465225093380907,7.688359496892755,-36.522268769332186,145.83485191689635,-336.53206189372287,ok
359,869,282,4.136388900202878,3.917767153571379,-7.748909852689685,105.65327182159683,-268.76306260896376,-244.2676732264506,bye
622,236,877,-0.2141968499247504,-4.948098137617332,3.594811157127415,-10.550801314460614,416.3651067423957,-252.62418046725975,bye
468,726,179,-6.181022822491142,9.154082140129745,-4.794336056699531,-11.313804873852689,-93.95609090087589,460.06698317963696,thank_you
984,365,96,-9.686552522225485,-9.39677256986322,-0.48845180563067103,-422.4822902070142,177.37534672967888,-432.4718127741227,bye
627,285,190,-1.6400348054892575,9.161743751748457,-4.011744395067344,-309.22584798328035,227.75571732858452,-71.23849229649602,bye
699,377,73,-8.287415385429288,-5.664722639791999,-3.535093658810567,-179.02730722449934,182.94169462533023,371.2539058201942,thank_you
56,660,446,-8.116606035055256,-9.0235591614926,-4.792139727779561,-80.65300607409341,403.40024089302335,269.46599444771607,ok
250,829,784,-4.653409032746463,-4.15051933552885,5.055858423908772,93.9374438586043,-268.8691363940019,322.4421246489268,thank_you
895,905,496,2.6091659448484865,5.725646145804506,-2.6856828564190582,363.3451045230606,-413.94545531389883,472.2935841223331,ok
918,375,560,0.5982121712189841,5.0488401289610625,4.527140354281654,-340.83526191134604,-444.53430273495064,-112.73818772681108,ok
149,618,483,-8.620253834826388,-5.8231916715441585,-0.8786013979197449,-484.9119697893051,377.8441504750249,-190.34472561953885,ok
451,652,848,9.368625517849395,-6.064197328164012,0.9449208420057449,-50.76286922408423,473.2870499391821,-469.3405098498027,no
161,75,721,7.743373765891821,2.851598316090815,0.8657495142697478,-67.89710258837192,-197.47345879528734,-349.98063821013795,ok
119,8,115,-4.815490257096835,-0.8383462064853902,9.517041586871777,51.90121849517243,193.51392357496923,62.01465454302411,thank_you
581,195,534,-7.553228480757175,5.845799066618046,-2.658750885780976,333.2217713715006,-491.0872158282511,-342.3394049466599,thank_you
923,806,97,8.848057295139803,-9.517344426148927,-5.846318092048048,302.3605509824779,-311.3684898840122,236.30501598091064,thank_you
350,791,327,-0.7771644423860025,2.2082372152114225,8.235838807332044,-399.9567155699888,189.27438246161444,-462.7673950840625,no
98,892,908,-3.7766607045712846,4.613440244797518,-6.503214213688535,433.9953666766737,-434.11286068476716,-240.51197676211808,bye
166,629,406,-0.19283929669625266,9.867722240573379,6.688456916886892,-389.5856053255553,-31.489950080175504,195.45312338848862,no
809,289,312,5.454882890928243,3.5756338847369378,-6.995702090661484,134.57050853423618,162.58326437394885,-244.49717576093622,thank_you
662,998,701,-6.63229403393891,-5.363096869000675,3.1744866845481248,172.40629359557568,265.95817130551734,228.76046422446404,thank_you
837,60,693,5.349916670186143,-7.836276102399225,-6.989183734709279,179.8774872230881,-46.18408627562951,495.8638754307019,bye
975,936,147,4.988935758677309,2.8183354928815074,8.461716384788588,-234.6488283246091,130.28403949634298,297.08395544910354,no
513,388,341,0.786964096817595,0.463661350364319,1.3001656530566237,-169.65490823500807,39.575629562061295,-158.16454123899746,thank_you
663,846,494,7.316845774991634,7.982905768900327,-3.4145232171982487,48.67687514939689,-447.69422791667887,400.5919006282612,ok
400,817,947,-7.3571324366027895,4.5321604236255,-7.193544500728102,-300.4125041999016,242.80468725984645,-448.82026433179055,ok
364,899,22,1.9095801333134617,0.19484900085241286,-2.5761552770801206,-479.6895321666488,-327.63808411462503,225.00682444731217,thank_you
576,562,104,-1.0131389499635688,-1.928210584697048,4.100400697376234,62.14445450857568,-468.19446876615865,-476.67766843732494,ok
325,563,674,-1.5541577432833655,-1.9125060085835948,-2.300982321429057,-34.72142798799274,-48.83208371162772,-325.444504643035,bye
580,633,578,-4.948778574609491,-5.473914276975309,-5.078117278091119,156.7312062234621,365.63758728151026,487.58574153857444,thank_you
632,678,801,-2.554406863801839,-9.65348056488606,1.5481889658763457,-353.2994241663401,-349.17056233897137,-139.115087505693,no
620,1017,800,-7.836984879526685,1.4982117641421233,-1.6435629432576082,340.9248945898514,-487.142465883025,320.4993781642388,thank_you
827,7,557,-4.968020604703495,-5.751705349535696,-6.683875279394154,-353.7785115394727,-390.0207642345829,-123.91328716439796,bye
246,368,592,-4.560697844438348,-5.83346164543917,-6.920240194450864,391.34360488002346,-136.3408856683933,340.0284507978156,no
433,44,940,4.413357349202789,-7.492375426470391,4.149239804437094,-50.478827404296965,80.17186999130377,465.43956012677427,bye
92,343,658,-9.028991455822737,-6.208090196466145,9.493437910325127,49.80525937269476,-306.98786601410745,-64.46375658083349,ok
267,756,221,3.0238461630172146,-9.364217008897246,-5.338118582758873,396.58133596398875,301.96400502257063,59.34919184827936,ok
614,795,854,-5.571801804136203,3.48462899497064,5.462972016629799,-200.08695152293296,253.2971205490819,128.63948996356783,ok
942,374,14,-8.362769881674122,-1.9720576737461144,-8.247865950990697,-318.1730037588485,195.8636165986992,434.8348021752354,bye
962,618,890,-3.983876778291318,1.2304919754629022,-2.368481618956366,-54.24837918054635,-12.530191684456042,-243.2559125654421,bye
623,26,632,-5.510542611427944,2.739152360415991,0.13376305616514017,-255.63277147229323,-134.78304486601468,111.24937283372674,thank_you
320,192,77,1.0406475167969997,9.449691245523184,-4.625061094204634,27.843911540317094,-124.41337903518922,-175.2797717768575,no
922,929,321,-2.8524719310407516,-8.63468268288998,0.5915683302850088,-224.74213555568355,3.070534955733308,-283.0668198175805,no
815,848,806,9.319874848166524,-1.6416463033712407,7.652288553277089,364.4895355954569,-422.68531311734546,-415.0796609767858,bye
855,356,240,9.270991987817013,-5.082041329470379,8.88875924709987,107.32459225772595,182.30546286706112,120.7108637359488,bye
61,61,17,-1.1256946175952098,-0.4657613628637165,-7.98886091253901,-499.75933025709776,-148.49245599069792,382.0854788715684,ok
299,61,767,5.901749213205193,8.409446012277762,-4.563081320315954,305.4737346798247,-275.2412220613114,-148.60711115548742,bye
402,421,453,-9.734629182782498,4.479685304963025,9.582678350354499,-169.7876632738541,-221.67292950136107,52.668536192977285,ok
954,793,442,0.9562316944960525,3.238991729597867,-4.591631791955127,-179.7920158450429,-319.7057147137822,142.13379529411577,bye
647,632,927,4.86598344613958,-1.1750824713764523,3.854147022868821,-116.93718786553262,401.5680855277885,-85.34982220479606,no
566,791,276,-5.6611354918532815,3.4222499674887175,-4.930926122592707,130.2625280840807,-330.96248363744894,403.3478503660581,thank_you
619,550,423,-8.776564896681124,-9.352492454511838,-2.872688133579235,-57.93928960577699,382.9261188948626,-137.24483879882342,bye
302,379,475,-6.881621281870882,1.7247734405978896,-6.174420242062051,128.63554656970246,72.2433959684513,-374.98917991015634,ok
769,276,26,-1.16303825652286,1.0755312519849642,7.126003873942903,-353.21927836420764,367.45095538886017,-355.97964194830047,thank_you
